Trial_order	Subject	Subject_number	Trial_name	Trial_number	Error_code	Accuracy	RT	PrevRT	Leksikalnost	NoS	Viseznacnost	Frekvencija	Frekod	Rec	Duzina	SubjSpeed	SubjAccuracy	Brzina.ispitanika
14	s1	24	t1	1	C	1	872	581	word	1	malo	302	NF	[APAT	5	672.2513966	0.994444444	spori
178	s1	24	t2	2	C	1	541	470	word	1	malo	320	NF	MR@NJA	6	672.2513966	0.994444444	spori
61	s1	24	t3	3	C	1	721	681	word	1	malo	391	NF	CESTA	5	672.2513966	0.994444444	spori
55	s1	24	t4	4	C	1	570	530	word	1	malo	414	VF	^E@NJA	6	672.2513966	0.994444444	spori
69	s1	24	t5	5	C	1	581	541	word	1	malo	424	VF	GRANJE	6	672.2513966	0.994444444	spori
63	s1	24	t6	6	C	1	501	491	word	1	malo	448	VF	DE^AK	5	672.2513966	0.994444444	spori
62	s1	24	t7	7	C	1	491	721	word	1	malo	453	VF	APRIL	5	672.2513966	0.994444444	spori
76	s1	24	t8	8	C	1	501	541	word	1	malo	720	VF	OSMEH	5	672.2513966	0.994444444	spori
172	s1	24	t9	9	C	1	550	641	word	1	malo	786	VF	CVE]E	5	672.2513966	0.994444444	spori
122	s1	24	t10	10	C	1	591	821	word	1	malo	1085	VF	LI[]E	5	672.2513966	0.994444444	spori
97	s1	24	t11	11	C	1	631	651	word	2	malo	254	NF	EKIPA	5	672.2513966	0.994444444	spori
169	s1	24	t12	12	C	1	531	972	word	2	malo	272	NF	BA[TA	5	672.2513966	0.994444444	spori
42	s1	24	t13	13	C	1	691	961	word	2	malo	317	NF	RADIO	5	672.2513966	0.994444444	spori
83	s1	24	t14	14	C	1	541	691	word	2	malo	320	NF	PESAK	5	672.2513966	0.994444444	spori
19	s1	24	t15	15	C	1	591	701	word	2	malo	374	NF	USPEH	5	672.2513966	0.994444444	spori
56	s1	24	t16	16	C	1	791	570	word	2	malo	422	VF	USLOV	5	672.2513966	0.994444444	spori
152	s1	24	t17	17	C	1	511	471	word	2	malo	894	VF	DINAR	5	672.2513966	0.994444444	spori
36	s1	24	t18	18	C	1	701	651	word	2	malo	1052	VF	ODBOR	5	672.2513966	0.994444444	spori
155	s1	24	t19	19	C	1	711	621	word	2	malo	1209	VF	SENKA	5	672.2513966	0.994444444	spori
88	s1	24	t20	20	C	1	611	731	word	2	malo	1452	VF	VLADA	5	672.2513966	0.994444444	spori
127	s1	24	t21	21	C	1	591	971	word	3	malo	334	NF	SUTON	5	672.2513966	0.994444444	spori
68	s1	24	t22	22	C	1	541	761	word	3	malo	335	NF	PU[KA	5	672.2513966	0.994444444	spori
129	s1	24	t23	23	C	1	491	581	word	3	malo	335	NF	SELJAK	6	672.2513966	0.994444444	spori
50	s1	24	t24	24	C	1	570	590	word	3	malo	348	NF	SPRAT	5	672.2513966	0.994444444	spori
91	s1	24	t25	25	C	1	531	711	word	3	malo	414	VF	MINUT	5	672.2513966	0.994444444	spori
65	s1	24	t26	26	C	1	541	1012	word	3	malo	430	VF	VIDIK	5	672.2513966	0.994444444	spori
141	s1	24	t27	27	C	1	520	480	word	3	malo	631	VF	MAGLA	5	672.2513966	0.994444444	spori
148	s1	24	t28	28	C	1	510	550	word	3	malo	657	VF	MIRIS	5	672.2513966	0.994444444	spori
101	s1	24	t29	29	C	1	531	832	word	3	malo	1470	VF	TRAVA	5	672.2513966	0.994444444	spori
54	s1	24	t30	30	C	1	530	571	word	3	malo	1847	VF	ULICA	5	672.2513966	0.994444444	spori
77	s1	24	t31	31	C	1	501	501	word	4	srednje	278	NF	ZANOS	5	672.2513966	0.994444444	spori
132	s1	24	t32	32	C	1	551	521	word	4	srednje	280	NF	OBZIR	5	672.2513966	0.994444444	spori
98	s1	24	t33	33	C	1	531	631	word	4	srednje	295	NF	PA@NJA	6	672.2513966	0.994444444	spori
51	s1	24	t34	34	C	1	540	570	word	4	srednje	314	NF	SVEST	5	672.2513966	0.994444444	spori
165	s1	24	t35	35	C	1	571	731	word	4	srednje	328	NF	POTOK	5	672.2513966	0.994444444	spori
53	s1	24	t36	36	C	1	571	742	word	4	srednje	375	NF	ZVONO	5	672.2513966	0.994444444	spori
177	s1	24	t37	37	C	1	470	640	word	4	srednje	484	VF	POMO]	5	672.2513966	0.994444444	spori
149	s1	24	t38	38	C	1	471	510	word	4	srednje	831	VF	GRUDI	5	672.2513966	0.994444444	spori
58	s1	24	t39	39	C	1	521	551	word	4	srednje	1256	VF	GRANA	5	672.2513966	0.994444444	spori
128	s1	24	t40	40	C	1	581	591	word	4	srednje	2274	VF	VETAR	5	672.2513966	0.994444444	spori
114	s1	24	t41	41	C	1	621	551	word	5	srednje	262	NF	KOMAD	5	672.2513966	0.994444444	spori
23	s1	24	t42	42	C	1	661	811	word	5	srednje	270	NF	LOPTA	5	672.2513966	0.994444444	spori
117	s1	24	t43	43	C	1	561	681	word	5	srednje	281	NF	IGRA^	5	672.2513966	0.994444444	spori
147	s1	24	t44	44	C	1	550	811	word	5	srednje	409	VF	PRI^A	5	672.2513966	0.994444444	spori
107	s1	24	t45	45	C	1	641	681	word	5	srednje	517	VF	SAVEZ	5	672.2513966	0.994444444	spori
80	s1	24	t46	46	C	1	621	732	word	5	srednje	521	VF	GRUPA	5	672.2513966	0.994444444	spori
180	s1	24	t47	47	C	1	451	561	word	5	srednje	828	VF	JESEN	5	672.2513966	0.994444444	spori
173	s1	24	t48	48	C	1	570	550	word	5	srednje	981	VF	KORAK	5	672.2513966	0.994444444	spori
109	s1	24	t49	49	C	1	541	801	word	5	srednje	1011	VF	SRE]A	5	672.2513966	0.994444444	spori
46	s1	24	t50	50	C	1	822	571	word	5	srednje	1671	VF	PTICA	5	672.2513966	0.994444444	spori
48	s1	24	t51	51	C	1	510	500	word	6	srednje	148	NF	ORGAN	5	672.2513966	0.994444444	spori
159	s1	24	t52	52	C	1	591	1112	word	6	srednje	164	NF	FORMA	5	672.2513966	0.994444444	spori
118	s1	24	t53	53	C	1	751	561	word	6	srednje	179	NF	BLATO	5	672.2513966	0.994444444	spori
4	s1	24	t54	54	C	1	621	741	word	6	srednje	184	NF	KLUPA	5	672.2513966	0.994444444	spori
66	s1	24	t55	55	C	1	661	541	word	6	srednje	216	NF	PONOR	5	672.2513966	0.994444444	spori
168	s1	24	t56	56	C	1	972	511	word	6	srednje	255	NF	PODNE	5	672.2513966	0.994444444	spori
49	s1	24	t57	57	C	1	590	510	word	6	srednje	318	NF	STENA	5	672.2513966	0.994444444	spori
170	s1	24	t58	58	C	1	500	531	word	6	srednje	463	VF	IZVOR	5	672.2513966	0.994444444	spori
6	s1	24	t59	59	C	1	471	601	word	6	srednje	2365	VF	LJUBAV	6	672.2513966	0.994444444	spori
131	s1	24	t60	60	C	1	521	491	word	6	srednje	2626	VF	PESMA	5	672.2513966	0.994444444	spori
24	s1	24	t61	61	C	1	491	661	word	7	mnogo	118	NF	MOMAK	5	672.2513966	0.994444444	spori
13	s1	24	t62	62	C	1	581	871	word	7	mnogo	129	NF	BLAGO	5	672.2513966	0.994444444	spori
1	s1	24	t63	63	C	1	931	prvi_trial	word	7	mnogo	134	NF	OSNOV	5	672.2513966	0.994444444	spori
21	s1	24	t64	64	C	1	591	591	word	7	mnogo	193	NF	STADO	5	672.2513966	0.994444444	spori
75	s1	24	t65	65	C	1	541	921	word	7	mnogo	326	NF	SLAVA	5	672.2513966	0.994444444	spori
140	s1	24	t66	66	C	1	480	591	word	7	mnogo	649	VF	KNJIGA	6	672.2513966	0.994444444	spori
151	s1	24	t67	67	C	1	471	671	word	7	mnogo	885	VF	[KOLA	5	672.2513966	0.994444444	spori
89	s1	24	t68	68	C	1	550	611	word	7	mnogo	1023	VF	BORBA	5	672.2513966	0.994444444	spori
45	s1	24	t69	69	C	1	571	591	word	7	mnogo	1565	VF	OBLAK	5	672.2513966	0.994444444	spori
153	s1	24	t70	70	C	1	471	511	word	7	mnogo	2984	VF	SUNCE	5	672.2513966	0.994444444	spori
136	s1	24	t71	71	E	0	NA	531	word	8	mnogo	111	NF	REBRO	5	672.2513966	0.994444444	spori
57	s1	24	t72	72	C	1	551	791	word	8	mnogo	116	NF	KONAC	5	672.2513966	0.994444444	spori
16	s1	24	t73	73	C	1	671	881	word	8	mnogo	135	NF	POTEZ	5	672.2513966	0.994444444	spori
130	s1	24	t74	74	C	1	491	491	word	8	mnogo	159	NF	JUNAK	5	672.2513966	0.994444444	spori
29	s1	24	t75	75	C	1	481	591	word	8	mnogo	212	NF	LANAC	5	672.2513966	0.994444444	spori
5	s1	24	t76	76	C	1	601	621	word	8	mnogo	380	NF	ZLATO	5	672.2513966	0.994444444	spori
139	s1	24	t77	77	C	1	591	1142	word	8	mnogo	416	VF	PISMO	5	672.2513966	0.994444444	spori
163	s1	24	t78	78	C	1	791	832	word	8	mnogo	431	VF	ZAKON	5	672.2513966	0.994444444	spori
73	s1	24	t79	79	C	1	641	751	word	8	mnogo	1460	VF	SNAGA	5	672.2513966	0.994444444	spori
31	s1	24	t80	80	C	1	610	771	word	8	mnogo	3952	VF	ZEMLJA	6	672.2513966	0.994444444	spori
144	s1	24	t81	81	C	1	591	771	word	9	mnogo	161	NF	KLASA	5	672.2513966	0.994444444	spori
110	s1	24	t82	82	C	1	471	541	word	9	mnogo	168	NF	PLO^A	5	672.2513966	0.994444444	spori
28	s1	24	t83	83	C	1	591	1051	word	9	mnogo	307	NF	KARTA	5	672.2513966	0.994444444	spori
167	s1	24	t84	84	C	1	511	621	word	9	mnogo	328	NF	MRE@A	5	672.2513966	0.994444444	spori
115	s1	24	t85	85	C	1	571	621	word	9	mnogo	399	NF	STANJE	6	672.2513966	0.994444444	spori
47	s1	24	t86	86	C	1	500	822	word	9	mnogo	403	VF	GOVOR	5	672.2513966	0.994444444	spori
174	s1	24	t87	87	C	1	460	570	word	9	mnogo	999	VF	POSAO	5	672.2513966	0.994444444	spori
156	s1	24	t88	88	C	1	511	711	word	9	mnogo	1180	VF	MESTO	5	672.2513966	0.994444444	spori
133	s1	24	t89	89	C	1	521	551	word	9	mnogo	1620	VF	NAROD	5	672.2513966	0.994444444	spori
142	s1	24	t90	90	C	1	570	520	word	9	mnogo	190	NF	TA^KA	5	672.2513966	0.994444444	spori
160	s1	24	t91	91	C	1	591	591	pseudoword	NA	NA	NA	NA	[AMAT	5	672.2513966	0.994444444	spori
125	s1	24	t92	92	C	1	651	892	pseudoword	NA	NA	NA	NA	MR@KA	5	672.2513966	0.994444444	spori
158	s1	24	t93	93	C	1	1112	741	pseudoword	NA	NA	NA	NA	CESKA	5	672.2513966	0.994444444	spori
41	s1	24	t94	94	C	1	961	911	pseudoword	NA	NA	NA	NA	ME@NJA	6	672.2513966	0.994444444	spori
3	s1	24	t95	95	C	1	741	772	pseudoword	NA	NA	NA	NA	GRASE	5	672.2513966	0.994444444	spori
121	s1	24	t96	96	C	1	821	571	pseudoword	NA	NA	NA	NA	GE^AK	5	672.2513966	0.994444444	spori
145	s1	24	t97	97	C	1	841	591	pseudoword	NA	NA	NA	NA	APNIL	5	672.2513966	0.994444444	spori
72	s1	24	t98	98	C	1	751	831	pseudoword	NA	NA	NA	NA	OFMEH	5	672.2513966	0.994444444	spori
71	s1	24	t99	99	C	1	831	761	pseudoword	NA	NA	NA	NA	GRE]E	5	672.2513966	0.994444444	spori
18	s1	24	t100	100	C	1	701	771	pseudoword	NA	NA	NA	NA	FI[]E	5	672.2513966	0.994444444	spori
22	s1	24	t101	101	C	1	811	591	pseudoword	NA	NA	NA	NA	ELIPA	5	672.2513966	0.994444444	spori
157	s1	24	t102	102	C	1	741	511	pseudoword	NA	NA	NA	NA	BANTA	5	672.2513966	0.994444444	spori
85	s1	24	t103	103	C	1	711	621	pseudoword	NA	NA	NA	NA	RAFIO	5	672.2513966	0.994444444	spori
171	s1	24	t104	104	C	1	641	500	pseudoword	NA	NA	NA	NA	NESAK	5	672.2513966	0.994444444	spori
124	s1	24	t105	105	C	1	892	641	pseudoword	NA	NA	NA	NA	ULPEH	5	672.2513966	0.994444444	spori
116	s1	24	t106	106	C	1	681	571	pseudoword	NA	NA	NA	NA	UKLOV	5	672.2513966	0.994444444	spori
106	s1	24	t107	107	C	1	681	591	pseudoword	NA	NA	NA	NA	DINAT	5	672.2513966	0.994444444	spori
94	s1	24	t108	108	C	1	892	871	pseudoword	NA	NA	NA	NA	ODGOR	5	672.2513966	0.994444444	spori
166	s1	24	t109	109	C	1	621	571	pseudoword	NA	NA	NA	NA	SEFKA	5	672.2513966	0.994444444	spori
38	s1	24	t110	110	C	1	741	1372	pseudoword	NA	NA	NA	NA	VLABA	5	672.2513966	0.994444444	spori
79	s1	24	t111	111	C	1	732	831	pseudoword	NA	NA	NA	NA	GUTON	5	672.2513966	0.994444444	spori
25	s1	24	t112	112	C	1	941	491	pseudoword	NA	NA	NA	NA	PUNJKA	6	672.2513966	0.994444444	spori
20	s1	24	t113	113	C	1	591	591	pseudoword	NA	NA	NA	NA	KELJAK	6	672.2513966	0.994444444	spori
30	s1	24	t114	114	C	1	771	481	pseudoword	NA	NA	NA	NA	MRAT	4	672.2513966	0.994444444	spori
64	s1	24	t115	115	C	1	1012	501	pseudoword	NA	NA	NA	NA	RINUT	5	672.2513966	0.994444444	spori
146	s1	24	t116	116	C	1	811	841	pseudoword	NA	NA	NA	NA	VIMIK	5	672.2513966	0.994444444	spori
95	s1	24	t117	117	C	1	811	892	pseudoword	NA	NA	NA	NA	FAGLA	5	672.2513966	0.994444444	spori
126	s1	24	t118	118	C	1	971	651	pseudoword	NA	NA	NA	NA	MINJIS	6	672.2513966	0.994444444	spori
150	s1	24	t119	119	C	1	671	471	pseudoword	NA	NA	NA	NA	TRANA	5	672.2513966	0.994444444	spori
164	s1	24	t120	120	C	1	731	791	pseudoword	NA	NA	NA	NA	UKICA	5	672.2513966	0.994444444	spori
87	s1	24	t121	121	C	1	731	611	pseudoword	NA	NA	NA	NA	ZAROS	5	672.2513966	0.994444444	spori
90	s1	24	t122	122	C	1	711	550	pseudoword	NA	NA	NA	NA	OGZIR	5	672.2513966	0.994444444	spori
104	s1	24	t123	123	C	1	781	841	pseudoword	NA	NA	NA	NA	DA@NJA	6	672.2513966	0.994444444	spori
43	s1	24	t124	124	C	1	641	691	pseudoword	NA	NA	NA	NA	SVUST	5	672.2513966	0.994444444	spori
86	s1	24	t125	125	C	1	611	711	pseudoword	NA	NA	NA	NA	MOTOK	5	672.2513966	0.994444444	spori
143	s1	24	t126	126	C	1	771	570	pseudoword	NA	NA	NA	NA	ZRONO	5	672.2513966	0.994444444	spori
93	s1	24	t127	127	C	1	871	701	pseudoword	NA	NA	NA	NA	POGO]	5	672.2513966	0.994444444	spori
34	s1	24	t128	128	C	1	791	701	pseudoword	NA	NA	NA	NA	VRUDI	5	672.2513966	0.994444444	spori
17	s1	24	t129	129	C	1	771	671	pseudoword	NA	NA	NA	NA	FRANA	5	672.2513966	0.994444444	spori
179	s1	24	t130	130	C	1	561	541	pseudoword	NA	NA	NA	NA	GETAR	5	672.2513966	0.994444444	spori
134	s1	24	t131	131	C	1	641	521	pseudoword	NA	NA	NA	NA	JOMAD	5	672.2513966	0.994444444	spori
35	s1	24	t132	132	C	1	651	791	pseudoword	NA	NA	NA	NA	LONTA	5	672.2513966	0.994444444	spori
82	s1	24	t133	133	C	1	691	821	pseudoword	NA	NA	NA	NA	IMRA^	5	672.2513966	0.994444444	spori
119	s1	24	t134	134	C	1	871	751	pseudoword	NA	NA	NA	NA	DRI^A	5	672.2513966	0.994444444	spori
100	s1	24	t135	135	C	1	832	711	pseudoword	NA	NA	NA	NA	SADEZ	5	672.2513966	0.994444444	spori
138	s1	24	t136	136	C	1	1142	521	pseudoword	NA	NA	NA	NA	SRUPA	5	672.2513966	0.994444444	spori
11	s1	24	t137	137	C	1	882	921	pseudoword	NA	NA	NA	NA	GESEN	5	672.2513966	0.994444444	spori
2	s1	24	t138	138	C	1	772	931	pseudoword	NA	NA	NA	NA	LORAK	5	672.2513966	0.994444444	spori
181	s1	24	t139	139	C	1	601	451	pseudoword	NA	NA	NA	NA	HRE]A	5	672.2513966	0.994444444	spori
78	s1	24	t140	140	C	1	831	501	pseudoword	NA	NA	NA	NA	PLJICA	6	672.2513966	0.994444444	spori
60	s1	24	t141	141	C	1	681	741	pseudoword	NA	NA	NA	NA	ORSAN	5	672.2513966	0.994444444	spori
10	s1	24	t142	142	C	1	921	841	pseudoword	NA	NA	NA	NA	GORMA	5	672.2513966	0.994444444	spori
52	s1	24	t143	143	C	1	742	540	pseudoword	NA	NA	NA	NA	FLATO	5	672.2513966	0.994444444	spori
103	s1	24	t144	144	C	1	841	641	pseudoword	NA	NA	NA	NA	KLURA	5	672.2513966	0.994444444	spori
154	s1	24	t145	145	C	1	621	471	pseudoword	NA	NA	NA	NA	MONOR	5	672.2513966	0.994444444	spori
96	s1	24	t146	146	C	1	651	811	pseudoword	NA	NA	NA	NA	LONDE	5	672.2513966	0.994444444	spori
27	s1	24	t147	147	C	1	1051	661	pseudoword	NA	NA	NA	NA	STEDA	5	672.2513966	0.994444444	spori
105	s1	24	t148	148	C	1	591	781	pseudoword	NA	NA	NA	NA	IZVOK	5	672.2513966	0.994444444	spori
37	s1	24	t149	149	C	1	1372	701	pseudoword	NA	NA	NA	NA	LJUBANJ	7	672.2513966	0.994444444	spori
44	s1	24	t150	150	C	1	591	641	pseudoword	NA	NA	NA	NA	PE^MA	5	672.2513966	0.994444444	spori
108	s1	24	t151	151	C	1	801	641	pseudoword	NA	NA	NA	NA	RORAK	5	672.2513966	0.994444444	spori
102	s1	24	t152	152	C	1	641	531	pseudoword	NA	NA	NA	NA	FLAGO	5	672.2513966	0.994444444	spori
84	s1	24	t153	153	C	1	621	541	pseudoword	NA	NA	NA	NA	ORNOV	5	672.2513966	0.994444444	spori
123	s1	24	t154	154	C	1	641	591	pseudoword	NA	NA	NA	NA	STAKO	5	672.2513966	0.994444444	spori
9	s1	24	t155	155	C	1	841	721	pseudoword	NA	NA	NA	NA	SLAKA	5	672.2513966	0.994444444	spori
161	s1	24	t156	156	C	1	791	591	pseudoword	NA	NA	NA	NA	KRIGA	5	672.2513966	0.994444444	spori
112	s1	24	t157	157	C	1	851	601	pseudoword	NA	NA	NA	NA	[KONJA	6	672.2513966	0.994444444	spori
12	s1	24	t158	158	C	1	871	882	pseudoword	NA	NA	NA	NA	BORLA	5	672.2513966	0.994444444	spori
162	s1	24	t159	159	C	1	832	791	pseudoword	NA	NA	NA	NA	OBLAD	5	672.2513966	0.994444444	spori
39	s1	24	t160	160	C	1	881	741	pseudoword	NA	NA	NA	NA	GUNCE	5	672.2513966	0.994444444	spori
59	s1	24	t161	161	C	1	741	521	pseudoword	NA	NA	NA	NA	GEBRO	5	672.2513966	0.994444444	spori
176	s1	24	t162	162	C	1	640	621	pseudoword	NA	NA	NA	NA	JONAC	5	672.2513966	0.994444444	spori
81	s1	24	t163	163	C	1	821	621	pseudoword	NA	NA	NA	NA	MOTEZ	5	672.2513966	0.994444444	spori
175	s1	24	t164	164	C	1	621	460	pseudoword	NA	NA	NA	NA	JUPAK	5	672.2513966	0.994444444	spori
7	s1	24	t165	165	C	1	911	471	pseudoword	NA	NA	NA	NA	KANAC	5	672.2513966	0.994444444	spori
33	s1	24	t166	166	C	1	701	650	pseudoword	NA	NA	NA	NA	ZLARO	5	672.2513966	0.994444444	spori
32	s1	24	t167	167	C	1	650	610	pseudoword	NA	NA	NA	NA	KISMO	5	672.2513966	0.994444444	spori
74	s1	24	t168	168	C	1	921	641	pseudoword	NA	NA	NA	NA	VAKON	5	672.2513966	0.994444444	spori
70	s1	24	t169	169	C	1	761	581	pseudoword	NA	NA	NA	NA	SNARA	5	672.2513966	0.994444444	spori
120	s1	24	t170	170	C	1	571	871	pseudoword	NA	NA	NA	NA	KEMLJA	6	672.2513966	0.994444444	spori
15	s1	24	t171	171	C	1	881	872	pseudoword	NA	NA	NA	NA	KLAFA	5	672.2513966	0.994444444	spori
135	s1	24	t172	172	C	1	531	641	pseudoword	NA	NA	NA	NA	PLOFA	5	672.2513966	0.994444444	spori
8	s1	24	t173	173	C	1	721	911	pseudoword	NA	NA	NA	NA	KAMTA	5	672.2513966	0.994444444	spori
67	s1	24	t174	174	C	1	761	661	pseudoword	NA	NA	NA	NA	MREDA	5	672.2513966	0.994444444	spori
40	s1	24	t175	175	C	1	911	881	pseudoword	NA	NA	NA	NA	STAME	5	672.2513966	0.994444444	spori
113	s1	24	t176	176	C	1	551	851	pseudoword	NA	NA	NA	NA	MOVOR	5	672.2513966	0.994444444	spori
99	s1	24	t177	177	C	1	711	531	pseudoword	NA	NA	NA	NA	MOSAO	5	672.2513966	0.994444444	spori
26	s1	24	t178	178	C	1	661	941	pseudoword	NA	NA	NA	NA	LESTO	5	672.2513966	0.994444444	spori
111	s1	24	t179	179	C	1	601	471	pseudoword	NA	NA	NA	NA	GAROD	5	672.2513966	0.994444444	spori
92	s1	24	t180	180	C	1	701	531	pseudoword	NA	NA	NA	NA	LA^KA	5	672.2513966	0.994444444	spori
98	s10	15	t1	1	C	1	731	931	word	1	malo	302	NF	[APAT	5	852.1751412	0.983333333	spori
54	s10	15	t2	2	C	1	922	991	word	1	malo	320	NF	MR@NJA	6	852.1751412	0.983333333	spori
26	s10	15	t3	3	C	1	972	861	word	1	malo	391	NF	CESTA	5	852.1751412	0.983333333	spori
156	s10	15	t4	4	C	1	711	601	word	1	malo	414	VF	^E@NJA	6	852.1751412	0.983333333	spori
7	s10	15	t5	5	C	1	882	1111	word	1	malo	424	VF	GRANJE	6	852.1751412	0.983333333	spori
20	s10	15	t6	6	C	1	621	911	word	1	malo	448	VF	DE^AK	5	852.1751412	0.983333333	spori
108	s10	15	t7	7	C	1	1261	751	word	1	malo	453	VF	APRIL	5	852.1751412	0.983333333	spori
150	s10	15	t8	8	C	1	660	600	word	1	malo	720	VF	OSMEH	5	852.1751412	0.983333333	spori
175	s10	15	t9	9	C	1	982	911	word	1	malo	786	VF	CVE]E	5	852.1751412	0.983333333	spori
96	s10	15	t10	10	C	1	681	1011	word	1	malo	1085	VF	LI[]E	5	852.1751412	0.983333333	spori
88	s10	15	t11	11	C	1	1002	821	word	2	malo	254	NF	EKIPA	5	852.1751412	0.983333333	spori
89	s10	15	t12	12	C	1	631	1002	word	2	malo	272	NF	BA[TA	5	852.1751412	0.983333333	spori
122	s10	15	t13	13	C	1	972	691	word	2	malo	317	NF	RADIO	5	852.1751412	0.983333333	spori
132	s10	15	t14	14	C	1	621	630	word	2	malo	320	NF	PESAK	5	852.1751412	0.983333333	spori
91	s10	15	t15	15	C	1	581	661	word	2	malo	374	NF	USPEH	5	852.1751412	0.983333333	spori
112	s10	15	t16	16	C	1	681	681	word	2	malo	422	VF	USLOV	5	852.1751412	0.983333333	spori
46	s10	15	t17	17	C	1	792	691	word	2	malo	894	VF	DINAR	5	852.1751412	0.983333333	spori
130	s10	15	t18	18	C	1	881	1162	word	2	malo	1052	VF	ODBOR	5	852.1751412	0.983333333	spori
171	s10	15	t19	19	C	1	861	821	word	2	malo	1209	VF	SENKA	5	852.1751412	0.983333333	spori
126	s10	15	t20	20	C	1	881	791	word	2	malo	1452	VF	VLADA	5	852.1751412	0.983333333	spori
95	s10	15	t21	21	C	1	1011	942	word	3	malo	334	NF	SUTON	5	852.1751412	0.983333333	spori
131	s10	15	t22	22	C	1	630	881	word	3	malo	335	NF	PU[KA	5	852.1751412	0.983333333	spori
79	s10	15	t23	23	C	1	942	1171	word	3	malo	335	NF	SELJAK	6	852.1751412	0.983333333	spori
110	s10	15	t24	24	C	1	802	1151	word	3	malo	348	NF	SPRAT	5	852.1751412	0.983333333	spori
163	s10	15	t25	25	C	1	601	611	word	3	malo	414	VF	MINUT	5	852.1751412	0.983333333	spori
2	s10	15	t26	26	C	1	742	1021	word	3	malo	430	VF	VIDIK	5	852.1751412	0.983333333	spori
64	s10	15	t27	27	C	1	601	1262	word	3	malo	631	VF	MAGLA	5	852.1751412	0.983333333	spori
87	s10	15	t28	28	C	1	821	1022	word	3	malo	657	VF	MIRIS	5	852.1751412	0.983333333	spori
38	s10	15	t29	29	C	1	631	821	word	3	malo	1470	VF	TRAVA	5	852.1751412	0.983333333	spori
27	s10	15	t30	30	C	1	671	972	word	3	malo	1847	VF	ULICA	5	852.1751412	0.983333333	spori
16	s10	15	t31	31	C	1	691	1021	word	4	srednje	278	NF	ZANOS	5	852.1751412	0.983333333	spori
120	s10	15	t32	32	C	1	1011	821	word	4	srednje	280	NF	OBZIR	5	852.1751412	0.983333333	spori
116	s10	15	t33	33	C	1	631	981	word	4	srednje	295	NF	PA@NJA	6	852.1751412	0.983333333	spori
152	s10	15	t34	34	C	1	701	1231	word	4	srednje	314	NF	SVEST	5	852.1751412	0.983333333	spori
140	s10	15	t35	35	C	1	651	981	word	4	srednje	328	NF	POTOK	5	852.1751412	0.983333333	spori
136	s10	15	t36	36	C	1	711	561	word	4	srednje	375	NF	ZVONO	5	852.1751412	0.983333333	spori
111	s10	15	t37	37	C	1	681	802	word	4	srednje	484	VF	POMO]	5	852.1751412	0.983333333	spori
114	s10	15	t38	38	C	1	671	1001	word	4	srednje	831	VF	GRUDI	5	852.1751412	0.983333333	spori
66	s10	15	t39	39	C	1	691	771	word	4	srednje	1256	VF	GRANA	5	852.1751412	0.983333333	spori
43	s10	15	t40	40	C	1	651	1042	word	4	srednje	2274	VF	VETAR	5	852.1751412	0.983333333	spori
167	s10	15	t41	41	C	1	771	762	word	5	srednje	262	NF	KOMAD	5	852.1751412	0.983333333	spori
176	s10	15	t42	42	C	1	641	982	word	5	srednje	270	NF	LOPTA	5	852.1751412	0.983333333	spori
8	s10	15	t43	43	C	1	611	882	word	5	srednje	281	NF	IGRA^	5	852.1751412	0.983333333	spori
90	s10	15	t44	44	C	1	661	631	word	5	srednje	409	VF	PRI^A	5	852.1751412	0.983333333	spori
107	s10	15	t45	45	C	1	751	781	word	5	srednje	517	VF	SAVEZ	5	852.1751412	0.983333333	spori
119	s10	15	t46	46	C	1	821	991	word	5	srednje	521	VF	GRUPA	5	852.1751412	0.983333333	spori
178	s10	15	t47	47	C	1	651	1312	word	5	srednje	828	VF	JESEN	5	852.1751412	0.983333333	spori
65	s10	15	t48	48	C	1	771	601	word	5	srednje	981	VF	KORAK	5	852.1751412	0.983333333	spori
104	s10	15	t49	49	C	1	681	851	word	5	srednje	1011	VF	SRE]A	5	852.1751412	0.983333333	spori
4	s10	15	t50	50	C	1	581	841	word	5	srednje	1671	VF	PTICA	5	852.1751412	0.983333333	spori
21	s10	15	t51	51	C	1	701	621	word	6	srednje	148	NF	ORGAN	5	852.1751412	0.983333333	spori
61	s10	15	t52	52	C	1	962	921	word	6	srednje	164	NF	FORMA	5	852.1751412	0.983333333	spori
37	s10	15	t53	53	C	1	821	911	word	6	srednje	179	NF	BLATO	5	852.1751412	0.983333333	spori
149	s10	15	t54	54	C	1	600	851	word	6	srednje	184	NF	KLUPA	5	852.1751412	0.983333333	spori
63	s10	15	t55	55	C	1	1262	941	word	6	srednje	216	NF	PONOR	5	852.1751412	0.983333333	spori
73	s10	15	t56	56	C	1	651	902	word	6	srednje	255	NF	PODNE	5	852.1751412	0.983333333	spori
76	s10	15	t57	57	C	1	851	1102	word	6	srednje	318	NF	STENA	5	852.1751412	0.983333333	spori
117	s10	15	t58	58	C	1	802	631	word	6	srednje	463	VF	IZVOR	5	852.1751412	0.983333333	spori
154	s10	15	t59	59	C	1	611	971	word	6	srednje	2365	VF	LJUBAV	6	852.1751412	0.983333333	spori
17	s10	15	t60	60	C	1	590	691	word	6	srednje	2626	VF	PESMA	5	852.1751412	0.983333333	spori
75	s10	15	t61	61	C	1	1102	961	word	7	mnogo	118	NF	MOMAK	5	852.1751412	0.983333333	spori
18	s10	15	t62	62	C	1	871	590	word	7	mnogo	129	NF	BLAGO	5	852.1751412	0.983333333	spori
39	s10	15	t63	63	C	1	971	631	word	7	mnogo	134	NF	OSNOV	5	852.1751412	0.983333333	spori
82	s10	15	t64	64	C	1	751	921	word	7	mnogo	193	NF	STADO	5	852.1751412	0.983333333	spori
99	s10	15	t65	65	E	0	NA	731	word	7	mnogo	326	NF	SLAVA	5	852.1751412	0.983333333	spori
11	s10	15	t66	66	C	1	771	631	word	7	mnogo	649	VF	KNJIGA	6	852.1751412	0.983333333	spori
1	s10	15	t67	67	C	1	1021	prvi_trial	word	7	mnogo	885	VF	[KOLA	5	852.1751412	0.983333333	spori
24	s10	15	t68	68	C	1	881	952	word	7	mnogo	1023	VF	BORBA	5	852.1751412	0.983333333	spori
158	s10	15	t69	69	C	1	621	841	word	7	mnogo	1565	VF	OBLAK	5	852.1751412	0.983333333	spori
181	s10	15	t70	70	C	1	711	421	word	7	mnogo	2984	VF	SUNCE	5	852.1751412	0.983333333	spori
177	s10	15	t71	71	C	1	1312	641	word	8	mnogo	111	NF	REBRO	5	852.1751412	0.983333333	spori
44	s10	15	t72	72	C	1	651	651	word	8	mnogo	116	NF	KONAC	5	852.1751412	0.983333333	spori
162	s10	15	t73	73	C	1	611	802	word	8	mnogo	135	NF	POTEZ	5	852.1751412	0.983333333	spori
160	s10	15	t74	74	C	1	611	831	word	8	mnogo	159	NF	JUNAK	5	852.1751412	0.983333333	spori
41	s10	15	t75	75	C	1	891	1052	word	8	mnogo	212	NF	LANAC	5	852.1751412	0.983333333	spori
134	s10	15	t76	76	C	1	711	1191	word	8	mnogo	380	NF	ZLATO	5	852.1751412	0.983333333	spori
77	s10	15	t77	77	C	1	641	851	word	8	mnogo	416	VF	PISMO	5	852.1751412	0.983333333	spori
121	s10	15	t78	78	C	1	691	1011	word	8	mnogo	431	VF	ZAKON	5	852.1751412	0.983333333	spori
83	s10	15	t79	79	C	1	691	751	word	8	mnogo	1460	VF	SNAGA	5	852.1751412	0.983333333	spori
155	s10	15	t80	80	C	1	601	611	word	8	mnogo	3952	VF	ZEMLJA	6	852.1751412	0.983333333	spori
141	s10	15	t81	81	C	1	651	651	word	9	mnogo	161	NF	KLASA	5	852.1751412	0.983333333	spori
71	s10	15	t82	82	C	1	801	801	word	9	mnogo	168	NF	PLO^A	5	852.1751412	0.983333333	spori
147	s10	15	t83	83	C	1	751	862	word	9	mnogo	307	NF	KARTA	5	852.1751412	0.983333333	spori
59	s10	15	t84	84	C	1	721	881	word	9	mnogo	328	NF	MRE@A	5	852.1751412	0.983333333	spori
138	s10	15	t85	85	C	1	721	911	word	9	mnogo	399	NF	STANJE	6	852.1751412	0.983333333	spori
10	s10	15	t86	86	C	1	631	771	word	9	mnogo	403	VF	GOVOR	5	852.1751412	0.983333333	spori
93	s10	15	t87	87	C	1	711	1272	word	9	mnogo	999	VF	POSAO	5	852.1751412	0.983333333	spori
135	s10	15	t88	88	C	1	561	711	word	9	mnogo	1180	VF	MESTO	5	852.1751412	0.983333333	spori
157	s10	15	t89	89	C	1	841	711	word	9	mnogo	1620	VF	NAROD	5	852.1751412	0.983333333	spori
72	s10	15	t90	90	C	1	902	801	word	9	mnogo	190	NF	TA^KA	5	852.1751412	0.983333333	spori
74	s10	15	t91	91	C	1	961	651	pseudoword	NA	NA	NA	NA	[AMAT	5	852.1751412	0.983333333	spori
67	s10	15	t92	92	C	1	1322	691	pseudoword	NA	NA	NA	NA	MR@KA	5	852.1751412	0.983333333	spori
133	s10	15	t93	93	C	1	1191	621	pseudoword	NA	NA	NA	NA	CESKA	5	852.1751412	0.983333333	spori
139	s10	15	t94	94	C	1	981	721	pseudoword	NA	NA	NA	NA	ME@NJA	6	852.1751412	0.983333333	spori
22	s10	15	t95	95	C	1	931	701	pseudoword	NA	NA	NA	NA	GRASE	5	852.1751412	0.983333333	spori
164	s10	15	t96	96	C	1	781	601	pseudoword	NA	NA	NA	NA	GE^AK	5	852.1751412	0.983333333	spori
14	s10	15	t97	97	C	1	1042	821	pseudoword	NA	NA	NA	NA	APNIL	5	852.1751412	0.983333333	spori
30	s10	15	t98	98	C	1	741	891	pseudoword	NA	NA	NA	NA	OFMEH	5	852.1751412	0.983333333	spori
36	s10	15	t99	99	C	1	911	942	pseudoword	NA	NA	NA	NA	GRE]E	5	852.1751412	0.983333333	spori
118	s10	15	t100	100	C	1	991	802	pseudoword	NA	NA	NA	NA	FI[]E	5	852.1751412	0.983333333	spori
12	s10	15	t101	101	C	1	792	771	pseudoword	NA	NA	NA	NA	ELIPA	5	852.1751412	0.983333333	spori
6	s10	15	t102	102	C	1	1111	941	pseudoword	NA	NA	NA	NA	BANTA	5	852.1751412	0.983333333	spori
13	s10	15	t103	103	C	1	821	792	pseudoword	NA	NA	NA	NA	RAFIO	5	852.1751412	0.983333333	spori
52	s10	15	t104	104	C	1	882	691	pseudoword	NA	NA	NA	NA	NESAK	5	852.1751412	0.983333333	spori
81	s10	15	t105	105	C	1	921	1412	pseudoword	NA	NA	NA	NA	ULPEH	5	852.1751412	0.983333333	spori
33	s10	15	t106	106	C	1	922	961	pseudoword	NA	NA	NA	NA	UKLOV	5	852.1751412	0.983333333	spori
19	s10	15	t107	107	C	1	911	871	pseudoword	NA	NA	NA	NA	DINAT	5	852.1751412	0.983333333	spori
57	s10	15	t108	108	C	1	881	822	pseudoword	NA	NA	NA	NA	ODGOR	5	852.1751412	0.983333333	spori
129	s10	15	t109	109	C	1	1162	1122	pseudoword	NA	NA	NA	NA	SEFKA	5	852.1751412	0.983333333	spori
48	s10	15	t110	110	C	1	952	931	pseudoword	NA	NA	NA	NA	VLABA	5	852.1751412	0.983333333	spori
78	s10	15	t111	111	C	1	1171	641	pseudoword	NA	NA	NA	NA	GUTON	5	852.1751412	0.983333333	spori
128	s10	15	t112	112	C	1	1122	951	pseudoword	NA	NA	NA	NA	PUNJKA	6	852.1751412	0.983333333	spori
97	s10	15	t113	113	C	1	931	681	pseudoword	NA	NA	NA	NA	KELJAK	6	852.1751412	0.983333333	spori
56	s10	15	t114	114	C	1	822	861	pseudoword	NA	NA	NA	NA	MRAT	4	852.1751412	0.983333333	spori
168	s10	15	t115	115	C	1	831	771	pseudoword	NA	NA	NA	NA	RINUT	5	852.1751412	0.983333333	spori
148	s10	15	t116	116	C	1	851	751	pseudoword	NA	NA	NA	NA	VIMIK	5	852.1751412	0.983333333	spori
174	s10	15	t117	117	C	1	911	1042	pseudoword	NA	NA	NA	NA	FAGLA	5	852.1751412	0.983333333	spori
15	s10	15	t118	118	C	1	1021	1042	pseudoword	NA	NA	NA	NA	MINJIS	6	852.1751412	0.983333333	spori
105	s10	15	t119	119	C	1	841	681	pseudoword	NA	NA	NA	NA	TRANA	5	852.1751412	0.983333333	spori
137	s10	15	t120	120	C	1	911	711	pseudoword	NA	NA	NA	NA	UKICA	5	852.1751412	0.983333333	spori
69	s10	15	t121	121	C	1	941	791	pseudoword	NA	NA	NA	NA	ZAROS	5	852.1751412	0.983333333	spori
49	s10	15	t122	122	C	1	771	952	pseudoword	NA	NA	NA	NA	OGZIR	5	852.1751412	0.983333333	spori
109	s10	15	t123	123	C	1	1151	1261	pseudoword	NA	NA	NA	NA	DA@NJA	6	852.1751412	0.983333333	spori
103	s10	15	t124	124	C	1	851	861	pseudoword	NA	NA	NA	NA	SVUST	5	852.1751412	0.983333333	spori
85	s10	15	t125	125	C	1	1231	981	pseudoword	NA	NA	NA	NA	MOTOK	5	852.1751412	0.983333333	spori
143	s10	15	t126	126	C	1	851	902	pseudoword	NA	NA	NA	NA	ZRONO	5	852.1751412	0.983333333	spori
153	s10	15	t127	127	C	1	971	701	pseudoword	NA	NA	NA	NA	POGO]	5	852.1751412	0.983333333	spori
3	s10	15	t128	128	C	1	841	742	pseudoword	NA	NA	NA	NA	VRUDI	5	852.1751412	0.983333333	spori
47	s10	15	t129	129	C	1	931	792	pseudoword	NA	NA	NA	NA	FRANA	5	852.1751412	0.983333333	spori
161	s10	15	t130	130	C	1	802	611	pseudoword	NA	NA	NA	NA	GETAR	5	852.1751412	0.983333333	spori
35	s10	15	t131	131	C	1	942	871	pseudoword	NA	NA	NA	NA	JOMAD	5	852.1751412	0.983333333	spori
172	s10	15	t132	132	C	1	1162	861	pseudoword	NA	NA	NA	NA	LONTA	5	852.1751412	0.983333333	spori
127	s10	15	t133	133	C	1	951	881	pseudoword	NA	NA	NA	NA	IMRA^	5	852.1751412	0.983333333	spori
170	s10	15	t134	134	C	1	821	721	pseudoword	NA	NA	NA	NA	DRI^A	5	852.1751412	0.983333333	spori
55	s10	15	t135	135	C	1	861	922	pseudoword	NA	NA	NA	NA	SADEZ	5	852.1751412	0.983333333	spori
70	s10	15	t136	136	C	1	801	941	pseudoword	NA	NA	NA	NA	SRUPA	5	852.1751412	0.983333333	spori
166	s10	15	t137	137	C	1	762	881	pseudoword	NA	NA	NA	NA	GESEN	5	852.1751412	0.983333333	spori
169	s10	15	t138	138	C	1	721	831	pseudoword	NA	NA	NA	NA	LORAK	5	852.1751412	0.983333333	spori
51	s10	15	t139	139	C	1	691	781	pseudoword	NA	NA	NA	NA	HRE]A	5	852.1751412	0.983333333	spori
113	s10	15	t140	140	C	1	1001	681	pseudoword	NA	NA	NA	NA	PLJICA	6	852.1751412	0.983333333	spori
159	s10	15	t141	141	C	1	831	621	pseudoword	NA	NA	NA	NA	ORSAN	5	852.1751412	0.983333333	spori
68	s10	15	t142	142	C	1	791	1322	pseudoword	NA	NA	NA	NA	GORMA	5	852.1751412	0.983333333	spori
102	s10	15	t143	143	C	1	861	1002	pseudoword	NA	NA	NA	NA	FLATO	5	852.1751412	0.983333333	spori
58	s10	15	t144	144	C	1	881	881	pseudoword	NA	NA	NA	NA	KLURA	5	852.1751412	0.983333333	spori
84	s10	15	t145	145	C	1	981	691	pseudoword	NA	NA	NA	NA	MONOR	5	852.1751412	0.983333333	spori
165	s10	15	t146	146	C	1	881	781	pseudoword	NA	NA	NA	NA	LONDE	5	852.1751412	0.983333333	spori
53	s10	15	t147	147	C	1	991	882	pseudoword	NA	NA	NA	NA	STEDA	5	852.1751412	0.983333333	spori
146	s10	15	t148	148	C	1	862	1251	pseudoword	NA	NA	NA	NA	IZVOK	5	852.1751412	0.983333333	spori
145	s10	15	t149	149	C	1	1251	811	pseudoword	NA	NA	NA	NA	LJUBANJ	7	852.1751412	0.983333333	spori
115	s10	15	t150	150	C	1	981	671	pseudoword	NA	NA	NA	NA	PE^MA	5	852.1751412	0.983333333	spori
80	s10	15	t151	151	C	1	1412	942	pseudoword	NA	NA	NA	NA	RORAK	5	852.1751412	0.983333333	spori
45	s10	15	t152	152	C	1	691	651	pseudoword	NA	NA	NA	NA	FLAGO	5	852.1751412	0.983333333	spori
9	s10	15	t153	153	C	1	771	611	pseudoword	NA	NA	NA	NA	ORNOV	5	852.1751412	0.983333333	spori
182	s10	15	t154	154	E	0	NA	711	pseudoword	NA	NA	NA	NA	STAKO	5	852.1751412	0.983333333	spori
60	s10	15	t155	155	C	1	921	721	pseudoword	NA	NA	NA	NA	SLAKA	5	852.1751412	0.983333333	spori
5	s10	15	t156	156	C	1	941	581	pseudoword	NA	NA	NA	NA	KRIGA	5	852.1751412	0.983333333	spori
40	s10	15	t157	157	C	1	1052	971	pseudoword	NA	NA	NA	NA	[KONJA	6	852.1751412	0.983333333	spori
29	s10	15	t158	158	C	1	891	1052	pseudoword	NA	NA	NA	NA	BORLA	5	852.1751412	0.983333333	spori
92	s10	15	t159	159	C	1	1272	581	pseudoword	NA	NA	NA	NA	OBLAD	5	852.1751412	0.983333333	spori
62	s10	15	t160	160	C	1	941	962	pseudoword	NA	NA	NA	NA	GUNCE	5	852.1751412	0.983333333	spori
151	s10	15	t161	161	C	1	1231	660	pseudoword	NA	NA	NA	NA	GEBRO	5	852.1751412	0.983333333	spori
144	s10	15	t162	162	C	1	811	851	pseudoword	NA	NA	NA	NA	JONAC	5	852.1751412	0.983333333	spori
94	s10	15	t163	163	C	1	942	711	pseudoword	NA	NA	NA	NA	MOTEZ	5	852.1751412	0.983333333	spori
106	s10	15	t164	164	C	1	781	841	pseudoword	NA	NA	NA	NA	JUPAK	5	852.1751412	0.983333333	spori
179	s10	15	t165	165	E	0	NA	651	pseudoword	NA	NA	NA	NA	KANAC	5	852.1751412	0.983333333	spori
31	s10	15	t166	166	C	1	801	741	pseudoword	NA	NA	NA	NA	ZLARO	5	852.1751412	0.983333333	spori
124	s10	15	t167	167	C	1	981	1072	pseudoword	NA	NA	NA	NA	KISMO	5	852.1751412	0.983333333	spori
32	s10	15	t168	168	C	1	961	801	pseudoword	NA	NA	NA	NA	VAKON	5	852.1751412	0.983333333	spori
142	s10	15	t169	169	C	1	902	651	pseudoword	NA	NA	NA	NA	SNARA	5	852.1751412	0.983333333	spori
125	s10	15	t170	170	C	1	791	981	pseudoword	NA	NA	NA	NA	KEMLJA	6	852.1751412	0.983333333	spori
28	s10	15	t171	171	C	1	1052	671	pseudoword	NA	NA	NA	NA	KLAFA	5	852.1751412	0.983333333	spori
173	s10	15	t172	172	C	1	1042	1162	pseudoword	NA	NA	NA	NA	PLOFA	5	852.1751412	0.983333333	spori
34	s10	15	t173	173	C	1	871	922	pseudoword	NA	NA	NA	NA	KAMTA	5	852.1751412	0.983333333	spori
23	s10	15	t174	174	C	1	952	931	pseudoword	NA	NA	NA	NA	MREDA	5	852.1751412	0.983333333	spori
123	s10	15	t175	175	C	1	1072	972	pseudoword	NA	NA	NA	NA	STAME	5	852.1751412	0.983333333	spori
101	s10	15	t176	176	C	1	1002	351	pseudoword	NA	NA	NA	NA	MOVOR	5	852.1751412	0.983333333	spori
42	s10	15	t177	177	C	1	1042	891	pseudoword	NA	NA	NA	NA	MOSAO	5	852.1751412	0.983333333	spori
25	s10	15	t178	178	C	1	861	881	pseudoword	NA	NA	NA	NA	LESTO	5	852.1751412	0.983333333	spori
50	s10	15	t179	179	C	1	781	771	pseudoword	NA	NA	NA	NA	GAROD	5	852.1751412	0.983333333	spori
86	s10	15	t180	180	C	1	1022	1231	pseudoword	NA	NA	NA	NA	LA^KA	5	852.1751412	0.983333333	spori
98	s11	14	t1	1	C	1	791	541	word	1	malo	302	NF	[APAT	5	694.2640449	0.988888889	spori
64	s11	14	t2	2	C	1	591	571	word	1	malo	320	NF	MR@NJA	6	694.2640449	0.988888889	spori
110	s11	14	t3	3	C	1	661	571	word	1	malo	391	NF	CESTA	5	694.2640449	0.988888889	spori
71	s11	14	t4	4	C	1	651	671	word	1	malo	414	VF	^E@NJA	6	694.2640449	0.988888889	spori
116	s11	14	t5	5	C	1	1071	621	word	1	malo	424	VF	GRANJE	6	694.2640449	0.988888889	spori
65	s11	14	t6	6	C	1	531	591	word	1	malo	448	VF	DE^AK	5	694.2640449	0.988888889	spori
1	s11	14	t7	7	C	1	541	prvi_trial	word	1	malo	453	VF	APRIL	5	694.2640449	0.988888889	spori
107	s11	14	t8	8	C	1	701	791	word	1	malo	720	VF	OSMEH	5	694.2640449	0.988888889	spori
10	s11	14	t9	9	C	1	611	610	word	1	malo	786	VF	CVE]E	5	694.2640449	0.988888889	spori
130	s11	14	t10	10	C	1	731	591	word	1	malo	1085	VF	LI[]E	5	694.2640449	0.988888889	spori
69	s11	14	t11	11	C	1	561	591	word	2	malo	254	NF	EKIPA	5	694.2640449	0.988888889	spori
114	s11	14	t12	12	C	1	661	842	word	2	malo	272	NF	BA[TA	5	694.2640449	0.988888889	spori
48	s11	14	t13	13	C	1	631	1072	word	2	malo	317	NF	RADIO	5	694.2640449	0.988888889	spori
23	s11	14	t14	14	C	1	631	841	word	2	malo	320	NF	PESAK	5	694.2640449	0.988888889	spori
174	s11	14	t15	15	C	1	511	591	word	2	malo	374	NF	USPEH	5	694.2640449	0.988888889	spori
46	s11	14	t16	16	C	1	801	992	word	2	malo	422	VF	USLOV	5	694.2640449	0.988888889	spori
89	s11	14	t17	17	C	1	751	651	word	2	malo	894	VF	DINAR	5	694.2640449	0.988888889	spori
97	s11	14	t18	18	C	1	541	922	word	2	malo	1052	VF	ODBOR	5	694.2640449	0.988888889	spori
181	s11	14	t19	19	C	1	641	711	word	2	malo	1209	VF	SENKA	5	694.2640449	0.988888889	spori
103	s11	14	t20	20	C	1	842	681	word	2	malo	1452	VF	VLADA	5	694.2640449	0.988888889	spori
96	s11	14	t21	21	C	1	922	651	word	3	malo	334	NF	SUTON	5	694.2640449	0.988888889	spori
61	s11	14	t22	22	C	1	651	621	word	3	malo	335	NF	PU[KA	5	694.2640449	0.988888889	spori
15	s11	14	t23	23	C	1	731	731	word	3	malo	335	NF	SELJAK	6	694.2640449	0.988888889	spori
168	s11	14	t24	24	C	1	631	641	word	3	malo	348	NF	SPRAT	5	694.2640449	0.988888889	spori
105	s11	14	t25	25	C	1	741	721	word	3	malo	414	VF	MINUT	5	694.2640449	0.988888889	spori
104	s11	14	t26	26	C	1	721	842	word	3	malo	430	VF	VIDIK	5	694.2640449	0.988888889	spori
51	s11	14	t27	27	C	1	531	851	word	3	malo	631	VF	MAGLA	5	694.2640449	0.988888889	spori
156	s11	14	t28	28	C	1	881	811	word	3	malo	657	VF	MIRIS	5	694.2640449	0.988888889	spori
164	s11	14	t29	29	C	1	661	711	word	3	malo	1470	VF	TRAVA	5	694.2640449	0.988888889	spori
102	s11	14	t30	30	C	1	681	691	word	3	malo	1847	VF	ULICA	5	694.2640449	0.988888889	spori
41	s11	14	t31	31	C	1	531	861	word	4	srednje	278	NF	ZANOS	5	694.2640449	0.988888889	spori
58	s11	14	t32	32	C	1	832	701	word	4	srednje	280	NF	OBZIR	5	694.2640449	0.988888889	spori
178	s11	14	t33	33	C	1	601	601	word	4	srednje	295	NF	PA@NJA	6	694.2640449	0.988888889	spori
50	s11	14	t34	34	C	1	851	601	word	4	srednje	314	NF	SVEST	5	694.2640449	0.988888889	spori
47	s11	14	t35	35	C	1	1072	801	word	4	srednje	328	NF	POTOK	5	694.2640449	0.988888889	spori
123	s11	14	t36	36	C	1	841	671	word	4	srednje	375	NF	ZVONO	5	694.2640449	0.988888889	spori
150	s11	14	t37	37	C	1	991	832	word	4	srednje	484	VF	POMO]	5	694.2640449	0.988888889	spori
82	s11	14	t38	38	C	1	851	621	word	4	srednje	831	VF	GRUDI	5	694.2640449	0.988888889	spori
40	s11	14	t39	39	C	1	861	570	word	4	srednje	1256	VF	GRANA	5	694.2640449	0.988888889	spori
153	s11	14	t40	40	C	1	551	681	word	4	srednje	2274	VF	VETAR	5	694.2640449	0.988888889	spori
100	s11	14	t41	41	C	1	691	511	word	5	srednje	262	NF	KOMAD	5	694.2640449	0.988888889	spori
112	s11	14	t42	42	C	1	761	711	word	5	srednje	270	NF	LOPTA	5	694.2640449	0.988888889	spori
115	s11	14	t43	43	C	1	621	661	word	5	srednje	281	NF	IGRA^	5	694.2640449	0.988888889	spori
32	s11	14	t44	44	C	1	581	641	word	5	srednje	409	VF	PRI^A	5	694.2640449	0.988888889	spori
87	s11	14	t45	45	C	1	631	601	word	5	srednje	517	VF	SAVEZ	5	694.2640449	0.988888889	spori
8	s11	14	t46	46	C	1	671	651	word	5	srednje	521	VF	GRUPA	5	694.2640449	0.988888889	spori
148	s11	14	t47	47	C	1	681	631	word	5	srednje	828	VF	JESEN	5	694.2640449	0.988888889	spori
108	s11	14	t48	48	C	1	601	701	word	5	srednje	981	VF	KORAK	5	694.2640449	0.988888889	spori
63	s11	14	t49	49	C	1	571	571	word	5	srednje	1011	VF	SRE]A	5	694.2640449	0.988888889	spori
36	s11	14	t50	50	C	1	601	951	word	5	srednje	1671	VF	PTICA	5	694.2640449	0.988888889	spori
136	s11	14	t51	51	C	1	551	591	word	6	srednje	148	NF	ORGAN	5	694.2640449	0.988888889	spori
72	s11	14	t52	52	C	1	741	651	word	6	srednje	164	NF	FORMA	5	694.2640449	0.988888889	spori
27	s11	14	t53	53	C	1	831	621	word	6	srednje	179	NF	BLATO	5	694.2640449	0.988888889	spori
20	s11	14	t54	54	C	1	591	681	word	6	srednje	184	NF	KLUPA	5	694.2640449	0.988888889	spori
99	s11	14	t55	55	C	1	511	791	word	6	srednje	216	NF	PONOR	5	694.2640449	0.988888889	spori
66	s11	14	t56	56	C	1	551	531	word	6	srednje	255	NF	PODNE	5	694.2640449	0.988888889	spori
11	s11	14	t57	57	C	1	601	611	word	6	srednje	318	NF	STENA	5	694.2640449	0.988888889	spori
170	s11	14	t58	58	C	1	761	721	word	6	srednje	463	VF	IZVOR	5	694.2640449	0.988888889	spori
147	s11	14	t59	59	C	1	631	711	word	6	srednje	2365	VF	LJUBAV	6	694.2640449	0.988888889	spori
2	s11	14	t60	60	C	1	461	541	word	6	srednje	2626	VF	PESMA	5	694.2640449	0.988888889	spori
109	s11	14	t61	61	C	1	571	601	word	7	mnogo	118	NF	MOMAK	5	694.2640449	0.988888889	spori
151	s11	14	t62	62	C	1	832	991	word	7	mnogo	129	NF	BLAGO	5	694.2640449	0.988888889	spori
175	s11	14	t63	63	C	1	771	511	word	7	mnogo	134	NF	OSNOV	5	694.2640449	0.988888889	spori
24	s11	14	t64	64	C	1	792	631	word	7	mnogo	193	NF	STADO	5	694.2640449	0.988888889	spori
34	s11	14	t65	65	C	1	721	591	word	7	mnogo	326	NF	SLAVA	5	694.2640449	0.988888889	spori
60	s11	14	t66	66	C	1	621	751	word	7	mnogo	649	VF	KNJIGA	6	694.2640449	0.988888889	spori
57	s11	14	t67	67	C	1	701	791	word	7	mnogo	885	VF	[KOLA	5	694.2640449	0.988888889	spori
91	s11	14	t68	68	C	1	781	661	word	7	mnogo	1023	VF	BORBA	5	694.2640449	0.988888889	spori
31	s11	14	t69	69	C	1	641	731	word	7	mnogo	1565	VF	OBLAK	5	694.2640449	0.988888889	spori
73	s11	14	t70	70	C	1	621	741	word	7	mnogo	2984	VF	SUNCE	5	694.2640449	0.988888889	spori
121	s11	14	t71	71	C	1	892	741	word	8	mnogo	111	NF	REBRO	5	694.2640449	0.988888889	spori
88	s11	14	t72	72	C	1	651	631	word	8	mnogo	116	NF	KONAC	5	694.2640449	0.988888889	spori
118	s11	14	t73	73	C	1	581	721	word	8	mnogo	135	NF	POTEZ	5	694.2640449	0.988888889	spori
133	s11	14	t74	74	C	1	751	661	word	8	mnogo	159	NF	JUNAK	5	694.2640449	0.988888889	spori
146	s11	14	t75	75	C	1	711	681	word	8	mnogo	212	NF	LANAC	5	694.2640449	0.988888889	spori
25	s11	14	t76	76	C	1	621	792	word	8	mnogo	380	NF	ZLATO	5	694.2640449	0.988888889	spori
17	s11	14	t77	77	C	1	772	581	word	8	mnogo	416	VF	PISMO	5	694.2640449	0.988888889	spori
172	s11	14	t78	78	C	1	571	671	word	8	mnogo	431	VF	ZAKON	5	694.2640449	0.988888889	spori
152	s11	14	t79	79	C	1	681	832	word	8	mnogo	1460	VF	SNAGA	5	694.2640449	0.988888889	spori
161	s11	14	t80	80	C	1	761	802	word	8	mnogo	3952	VF	ZEMLJA	6	694.2640449	0.988888889	spori
78	s11	14	t81	81	C	1	691	882	word	9	mnogo	161	NF	KLASA	5	694.2640449	0.988888889	spori
81	s11	14	t82	82	C	1	621	881	word	9	mnogo	168	NF	PLO^A	5	694.2640449	0.988888889	spori
33	s11	14	t83	83	C	1	591	581	word	9	mnogo	307	NF	KARTA	5	694.2640449	0.988888889	spori
68	s11	14	t84	84	C	1	591	591	word	9	mnogo	328	NF	MRE@A	5	694.2640449	0.988888889	spori
139	s11	14	t85	85	C	1	661	401	word	9	mnogo	399	NF	STANJE	6	694.2640449	0.988888889	spori
39	s11	14	t86	86	C	1	570	651	word	9	mnogo	403	VF	GOVOR	5	694.2640449	0.988888889	spori
93	s11	14	t87	87	C	1	621	841	word	9	mnogo	999	VF	POSAO	5	694.2640449	0.988888889	spori
135	s11	14	t88	88	C	1	591	731	word	9	mnogo	1180	VF	MESTO	5	694.2640449	0.988888889	spori
62	s11	14	t89	89	C	1	571	651	word	9	mnogo	1620	VF	NAROD	5	694.2640449	0.988888889	spori
143	s11	14	t90	90	C	1	731	370	word	9	mnogo	190	NF	TA^KA	5	694.2640449	0.988888889	spori
141	s11	14	t91	91	E	0	NA	731	pseudoword	NA	NA	NA	NA	[AMAT	5	694.2640449	0.988888889	spori
28	s11	14	t92	92	C	1	711	831	pseudoword	NA	NA	NA	NA	MR@KA	5	694.2640449	0.988888889	spori
149	s11	14	t93	93	C	1	832	681	pseudoword	NA	NA	NA	NA	CESKA	5	694.2640449	0.988888889	spori
137	s11	14	t94	94	E	0	NA	551	pseudoword	NA	NA	NA	NA	ME@NJA	6	694.2640449	0.988888889	spori
101	s11	14	t95	95	C	1	691	691	pseudoword	NA	NA	NA	NA	GRASE	5	694.2640449	0.988888889	spori
173	s11	14	t96	96	C	1	591	571	pseudoword	NA	NA	NA	NA	GE^AK	5	694.2640449	0.988888889	spori
126	s11	14	t97	97	C	1	731	852	pseudoword	NA	NA	NA	NA	APNIL	5	694.2640449	0.988888889	spori
160	s11	14	t98	98	C	1	802	811	pseudoword	NA	NA	NA	NA	OFMEH	5	694.2640449	0.988888889	spori
22	s11	14	t99	99	C	1	841	641	pseudoword	NA	NA	NA	NA	GRE]E	5	694.2640449	0.988888889	spori
94	s11	14	t100	100	C	1	611	621	pseudoword	NA	NA	NA	NA	FI[]E	5	694.2640449	0.988888889	spori
18	s11	14	t101	101	C	1	601	772	pseudoword	NA	NA	NA	NA	ELIPA	5	694.2640449	0.988888889	spori
43	s11	14	t102	102	C	1	711	611	pseudoword	NA	NA	NA	NA	BANTA	5	694.2640449	0.988888889	spori
154	s11	14	t103	103	C	1	651	551	pseudoword	NA	NA	NA	NA	RAFIO	5	694.2640449	0.988888889	spori
117	s11	14	t104	104	C	1	721	1071	pseudoword	NA	NA	NA	NA	NESAK	5	694.2640449	0.988888889	spori
113	s11	14	t105	105	C	1	842	761	pseudoword	NA	NA	NA	NA	ULPEH	5	694.2640449	0.988888889	spori
55	s11	14	t106	106	C	1	791	771	pseudoword	NA	NA	NA	NA	UKLOV	5	694.2640449	0.988888889	spori
182	s11	14	t107	107	C	1	661	641	pseudoword	NA	NA	NA	NA	DINAT	5	694.2640449	0.988888889	spori
45	s11	14	t108	108	C	1	992	621	pseudoword	NA	NA	NA	NA	ODGOR	5	694.2640449	0.988888889	spori
38	s11	14	t109	109	C	1	651	520	pseudoword	NA	NA	NA	NA	SEFKA	5	694.2640449	0.988888889	spori
83	s11	14	t110	110	C	1	621	851	pseudoword	NA	NA	NA	NA	VLABA	5	694.2640449	0.988888889	spori
95	s11	14	t111	111	C	1	651	611	pseudoword	NA	NA	NA	NA	GUTON	5	694.2640449	0.988888889	spori
132	s11	14	t112	112	C	1	661	751	pseudoword	NA	NA	NA	NA	PUNJKA	6	694.2640449	0.988888889	spori
9	s11	14	t113	113	C	1	610	671	pseudoword	NA	NA	NA	NA	KELJAK	6	694.2640449	0.988888889	spori
179	s11	14	t114	114	C	1	601	601	pseudoword	NA	NA	NA	NA	MRAT	4	694.2640449	0.988888889	spori
119	s11	14	t115	115	C	1	831	581	pseudoword	NA	NA	NA	NA	RINUT	5	694.2640449	0.988888889	spori
85	s11	14	t116	116	C	1	561	581	pseudoword	NA	NA	NA	NA	VIMIK	5	694.2640449	0.988888889	spori
128	s11	14	t117	117	C	1	671	671	pseudoword	NA	NA	NA	NA	FAGLA	5	694.2640449	0.988888889	spori
19	s11	14	t118	118	C	1	681	601	pseudoword	NA	NA	NA	NA	MINJIS	6	694.2640449	0.988888889	spori
162	s11	14	t119	119	C	1	681	761	pseudoword	NA	NA	NA	NA	TRANA	5	694.2640449	0.988888889	spori
122	s11	14	t120	120	C	1	671	892	pseudoword	NA	NA	NA	NA	UKICA	5	694.2640449	0.988888889	spori
155	s11	14	t121	121	C	1	811	651	pseudoword	NA	NA	NA	NA	ZAROS	5	694.2640449	0.988888889	spori
49	s11	14	t122	122	C	1	601	631	pseudoword	NA	NA	NA	NA	OGZIR	5	694.2640449	0.988888889	spori
13	s11	14	t123	123	C	1	771	571	pseudoword	NA	NA	NA	NA	DA@NJA	6	694.2640449	0.988888889	spori
140	s11	14	t124	124	C	1	731	661	pseudoword	NA	NA	NA	NA	SVUST	5	694.2640449	0.988888889	spori
3	s11	14	t125	125	C	1	581	461	pseudoword	NA	NA	NA	NA	MOTOK	5	694.2640449	0.988888889	spori
166	s11	14	t126	126	C	1	711	641	pseudoword	NA	NA	NA	NA	ZRONO	5	694.2640449	0.988888889	spori
80	s11	14	t127	127	C	1	881	731	pseudoword	NA	NA	NA	NA	POGO]	5	694.2640449	0.988888889	spori
120	s11	14	t128	128	C	1	741	831	pseudoword	NA	NA	NA	NA	VRUDI	5	694.2640449	0.988888889	spori
67	s11	14	t129	129	C	1	591	551	pseudoword	NA	NA	NA	NA	FRANA	5	694.2640449	0.988888889	spori
157	s11	14	t130	130	C	1	641	881	pseudoword	NA	NA	NA	NA	GETAR	5	694.2640449	0.988888889	spori
42	s11	14	t131	131	C	1	611	531	pseudoword	NA	NA	NA	NA	JOMAD	5	694.2640449	0.988888889	spori
26	s11	14	t132	132	C	1	621	621	pseudoword	NA	NA	NA	NA	LONTA	5	694.2640449	0.988888889	spori
134	s11	14	t133	133	C	1	731	751	pseudoword	NA	NA	NA	NA	IMRA^	5	694.2640449	0.988888889	spori
145	s11	14	t134	134	C	1	681	741	pseudoword	NA	NA	NA	NA	DRI^A	5	694.2640449	0.988888889	spori
7	s11	14	t135	135	C	1	651	721	pseudoword	NA	NA	NA	NA	SADEZ	5	694.2640449	0.988888889	spori
92	s11	14	t136	136	C	1	841	781	pseudoword	NA	NA	NA	NA	SRUPA	5	694.2640449	0.988888889	spori
177	s11	14	t137	137	C	1	601	781	pseudoword	NA	NA	NA	NA	GESEN	5	694.2640449	0.988888889	spori
44	s11	14	t138	138	C	1	621	711	pseudoword	NA	NA	NA	NA	LORAK	5	694.2640449	0.988888889	spori
159	s11	14	t139	139	C	1	811	831	pseudoword	NA	NA	NA	NA	HRE]A	5	694.2640449	0.988888889	spori
163	s11	14	t140	140	C	1	711	681	pseudoword	NA	NA	NA	NA	PLJICA	6	694.2640449	0.988888889	spori
131	s11	14	t141	141	C	1	751	731	pseudoword	NA	NA	NA	NA	ORSAN	5	694.2640449	0.988888889	spori
35	s11	14	t142	142	C	1	951	721	pseudoword	NA	NA	NA	NA	GORMA	5	694.2640449	0.988888889	spori
70	s11	14	t143	143	C	1	671	561	pseudoword	NA	NA	NA	NA	FLATO	5	694.2640449	0.988888889	spori
4	s11	14	t144	144	C	1	681	581	pseudoword	NA	NA	NA	NA	KLURA	5	694.2640449	0.988888889	spori
84	s11	14	t145	145	C	1	581	621	pseudoword	NA	NA	NA	NA	MONOR	5	694.2640449	0.988888889	spori
165	s11	14	t146	146	C	1	641	661	pseudoword	NA	NA	NA	NA	LONDE	5	694.2640449	0.988888889	spori
16	s11	14	t147	147	C	1	581	731	pseudoword	NA	NA	NA	NA	STEDA	5	694.2640449	0.988888889	spori
90	s11	14	t148	148	C	1	661	751	pseudoword	NA	NA	NA	NA	IZVOK	5	694.2640449	0.988888889	spori
158	s11	14	t149	149	C	1	831	641	pseudoword	NA	NA	NA	NA	LJUBANJ	7	694.2640449	0.988888889	spori
54	s11	14	t150	150	C	1	771	671	pseudoword	NA	NA	NA	NA	PE^MA	5	694.2640449	0.988888889	spori
76	s11	14	t151	151	C	1	861	781	pseudoword	NA	NA	NA	NA	RORAK	5	694.2640449	0.988888889	spori
14	s11	14	t152	152	C	1	731	771	pseudoword	NA	NA	NA	NA	FLAGO	5	694.2640449	0.988888889	spori
21	s11	14	t153	153	C	1	641	591	pseudoword	NA	NA	NA	NA	ORNOV	5	694.2640449	0.988888889	spori
171	s11	14	t154	154	C	1	671	761	pseudoword	NA	NA	NA	NA	STAKO	5	694.2640449	0.988888889	spori
176	s11	14	t155	155	C	1	781	771	pseudoword	NA	NA	NA	NA	SLAKA	5	694.2640449	0.988888889	spori
52	s11	14	t156	156	C	1	631	531	pseudoword	NA	NA	NA	NA	KRIGA	5	694.2640449	0.988888889	spori
74	s11	14	t157	157	C	1	701	621	pseudoword	NA	NA	NA	NA	[KONJA	6	694.2640449	0.988888889	spori
180	s11	14	t158	158	C	1	711	601	pseudoword	NA	NA	NA	NA	BORLA	5	694.2640449	0.988888889	spori
5	s11	14	t159	159	C	1	761	681	pseudoword	NA	NA	NA	NA	OBLAD	5	694.2640449	0.988888889	spori
59	s11	14	t160	160	C	1	751	832	pseudoword	NA	NA	NA	NA	GUNCE	5	694.2640449	0.988888889	spori
29	s11	14	t161	161	C	1	661	711	pseudoword	NA	NA	NA	NA	GEBRO	5	694.2640449	0.988888889	spori
106	s11	14	t162	162	C	1	791	741	pseudoword	NA	NA	NA	NA	JONAC	5	694.2640449	0.988888889	spori
124	s11	14	t163	163	C	1	721	841	pseudoword	NA	NA	NA	NA	MOTEZ	5	694.2640449	0.988888889	spori
75	s11	14	t164	164	C	1	781	701	pseudoword	NA	NA	NA	NA	JUPAK	5	694.2640449	0.988888889	spori
144	s11	14	t165	165	C	1	741	731	pseudoword	NA	NA	NA	NA	KANAC	5	694.2640449	0.988888889	spori
30	s11	14	t166	166	C	1	731	661	pseudoword	NA	NA	NA	NA	ZLARO	5	694.2640449	0.988888889	spori
86	s11	14	t167	167	C	1	601	561	pseudoword	NA	NA	NA	NA	KISMO	5	694.2640449	0.988888889	spori
125	s11	14	t168	168	C	1	852	721	pseudoword	NA	NA	NA	NA	VAKON	5	694.2640449	0.988888889	spori
53	s11	14	t169	169	C	1	671	631	pseudoword	NA	NA	NA	NA	SNARA	5	694.2640449	0.988888889	spori
169	s11	14	t170	170	C	1	721	631	pseudoword	NA	NA	NA	NA	KEMLJA	6	694.2640449	0.988888889	spori
79	s11	14	t171	171	C	1	731	691	pseudoword	NA	NA	NA	NA	KLAFA	5	694.2640449	0.988888889	spori
77	s11	14	t172	172	C	1	882	861	pseudoword	NA	NA	NA	NA	PLOFA	5	694.2640449	0.988888889	spori
37	s11	14	t173	173	C	1	520	601	pseudoword	NA	NA	NA	NA	KAMTA	5	694.2640449	0.988888889	spori
127	s11	14	t174	174	C	1	671	731	pseudoword	NA	NA	NA	NA	MREDA	5	694.2640449	0.988888889	spori
129	s11	14	t175	175	C	1	591	671	pseudoword	NA	NA	NA	NA	STAME	5	694.2640449	0.988888889	spori
12	s11	14	t176	176	C	1	571	601	pseudoword	NA	NA	NA	NA	MOVOR	5	694.2640449	0.988888889	spori
56	s11	14	t177	177	C	1	791	791	pseudoword	NA	NA	NA	NA	MOSAO	5	694.2640449	0.988888889	spori
167	s11	14	t178	178	C	1	641	711	pseudoword	NA	NA	NA	NA	LESTO	5	694.2640449	0.988888889	spori
111	s11	14	t179	179	C	1	711	661	pseudoword	NA	NA	NA	NA	GAROD	5	694.2640449	0.988888889	spori
6	s11	14	t180	180	C	1	721	761	pseudoword	NA	NA	NA	NA	LA^KA	5	694.2640449	0.988888889	spori
92	s12	13	t1	1	C	1	861	742	word	1	malo	302	NF	[APAT	5	728.2259887	0.983333333	spori
140	s12	13	t2	2	C	1	470	580	word	1	malo	320	NF	MR@NJA	6	728.2259887	0.983333333	spori
143	s12	13	t3	3	C	1	821	641	word	1	malo	391	NF	CESTA	5	728.2259887	0.983333333	spori
76	s12	13	t4	4	C	1	871	501	word	1	malo	414	VF	^E@NJA	6	728.2259887	0.983333333	spori
58	s12	13	t5	5	C	1	1092	671	word	1	malo	424	VF	GRANJE	6	728.2259887	0.983333333	spori
28	s12	13	t6	6	C	1	601	751	word	1	malo	448	VF	DE^AK	5	728.2259887	0.983333333	spori
175	s12	13	t7	7	C	1	551	691	word	1	malo	453	VF	APRIL	5	728.2259887	0.983333333	spori
104	s12	13	t8	8	C	1	631	952	word	1	malo	720	VF	OSMEH	5	728.2259887	0.983333333	spori
170	s12	13	t9	9	C	1	621	742	word	1	malo	786	VF	CVE]E	5	728.2259887	0.983333333	spori
139	s12	13	t10	10	C	1	580	921	word	1	malo	1085	VF	LI[]E	5	728.2259887	0.983333333	spori
21	s12	13	t11	11	C	1	511	621	word	2	malo	254	NF	EKIPA	5	728.2259887	0.983333333	spori
69	s12	13	t12	12	C	1	580	861	word	2	malo	272	NF	BA[TA	5	728.2259887	0.983333333	spori
13	s12	13	t13	13	C	1	641	971	word	2	malo	317	NF	RADIO	5	728.2259887	0.983333333	spori
158	s12	13	t14	14	C	1	631	521	word	2	malo	320	NF	PESAK	5	728.2259887	0.983333333	spori
81	s12	13	t15	15	C	1	531	711	word	2	malo	374	NF	USPEH	5	728.2259887	0.983333333	spori
134	s12	13	t16	16	C	1	641	1422	word	2	malo	422	VF	USLOV	5	728.2259887	0.983333333	spori
97	s12	13	t17	17	C	1	591	711	word	2	malo	894	VF	DINAR	5	728.2259887	0.983333333	spori
50	s12	13	t18	18	C	1	731	821	word	2	malo	1052	VF	ODBOR	5	728.2259887	0.983333333	spori
152	s12	13	t19	19	C	1	551	761	word	2	malo	1209	VF	SENKA	5	728.2259887	0.983333333	spori
17	s12	13	t20	20	C	1	651	1132	word	2	malo	1452	VF	VLADA	5	728.2259887	0.983333333	spori
131	s12	13	t21	21	C	1	600	691	word	3	malo	334	NF	SUTON	5	728.2259887	0.983333333	spori
126	s12	13	t22	22	C	1	852	731	word	3	malo	335	NF	PU[KA	5	728.2259887	0.983333333	spori
107	s12	13	t23	23	C	1	621	501	word	3	malo	335	NF	SELJAK	6	728.2259887	0.983333333	spori
179	s12	13	t24	24	C	1	1021	1051	word	3	malo	348	NF	SPRAT	5	728.2259887	0.983333333	spori
46	s12	13	t25	25	C	1	521	822	word	3	malo	414	VF	MINUT	5	728.2259887	0.983333333	spori
31	s12	13	t26	26	C	1	711	561	word	3	malo	430	VF	VIDIK	5	728.2259887	0.983333333	spori
42	s12	13	t27	27	C	1	501	601	word	3	malo	631	VF	MAGLA	5	728.2259887	0.983333333	spori
87	s12	13	t28	28	C	1	541	1011	word	3	malo	657	VF	MIRIS	5	728.2259887	0.983333333	spori
176	s12	13	t29	29	C	1	491	551	word	3	malo	1470	VF	TRAVA	5	728.2259887	0.983333333	spori
106	s12	13	t30	30	C	1	501	731	word	3	malo	1847	VF	ULICA	5	728.2259887	0.983333333	spori
47	s12	13	t31	31	C	1	681	521	word	4	srednje	278	NF	ZANOS	5	728.2259887	0.983333333	spori
93	s12	13	t32	32	C	1	521	861	word	4	srednje	280	NF	OBZIR	5	728.2259887	0.983333333	spori
62	s12	13	t33	33	C	1	520	600	word	4	srednje	295	NF	PA@NJA	6	728.2259887	0.983333333	spori
73	s12	13	t34	34	C	1	530	801	word	4	srednje	314	NF	SVEST	5	728.2259887	0.983333333	spori
71	s12	13	t35	35	C	1	531	1111	word	4	srednje	328	NF	POTOK	5	728.2259887	0.983333333	spori
36	s12	13	t36	36	C	1	571	731	word	4	srednje	375	NF	ZVONO	5	728.2259887	0.983333333	spori
23	s12	13	t37	37	C	1	541	1232	word	4	srednje	484	VF	POMO]	5	728.2259887	0.983333333	spori
123	s12	13	t38	38	C	1	691	721	word	4	srednje	831	VF	GRUDI	5	728.2259887	0.983333333	spori
14	s12	13	t39	39	C	1	621	641	word	4	srednje	1256	VF	GRANA	5	728.2259887	0.983333333	spori
111	s12	13	t40	40	C	1	631	781	word	4	srednje	2274	VF	VETAR	5	728.2259887	0.983333333	spori
7	s12	13	t41	41	C	1	531	621	word	5	srednje	262	NF	KOMAD	5	728.2259887	0.983333333	spori
55	s12	13	t42	42	C	1	570	671	word	5	srednje	270	NF	LOPTA	5	728.2259887	0.983333333	spori
118	s12	13	t43	43	C	1	601	821	word	5	srednje	281	NF	IGRA^	5	728.2259887	0.983333333	spori
24	s12	13	t44	44	C	1	541	541	word	5	srednje	409	VF	PRI^A	5	728.2259887	0.983333333	spori
64	s12	13	t45	45	C	1	621	1002	word	5	srednje	517	VF	SAVEZ	5	728.2259887	0.983333333	spori
30	s12	13	t46	46	C	1	561	812	word	5	srednje	521	VF	GRUPA	5	728.2259887	0.983333333	spori
90	s12	13	t47	47	C	1	591	711	word	5	srednje	828	VF	JESEN	5	728.2259887	0.983333333	spori
25	s12	13	t48	48	C	1	611	541	word	5	srednje	981	VF	KORAK	5	728.2259887	0.983333333	spori
160	s12	13	t49	49	C	1	460	621	word	5	srednje	1011	VF	SRE]A	5	728.2259887	0.983333333	spori
171	s12	13	t50	50	C	1	531	621	word	5	srednje	1671	VF	PTICA	5	728.2259887	0.983333333	spori
147	s12	13	t51	51	C	1	451	601	word	6	srednje	148	NF	ORGAN	5	728.2259887	0.983333333	spori
120	s12	13	t52	52	C	1	641	511	word	6	srednje	164	NF	FORMA	5	728.2259887	0.983333333	spori
110	s12	13	t53	53	C	1	781	821	word	6	srednje	179	NF	BLATO	5	728.2259887	0.983333333	spori
67	s12	13	t54	54	C	1	581	1132	word	6	srednje	184	NF	KLUPA	5	728.2259887	0.983333333	spori
2	s12	13	t55	55	C	1	851	671	word	6	srednje	216	NF	PONOR	5	728.2259887	0.983333333	spori
3	s12	13	t56	56	C	1	761	851	word	6	srednje	255	NF	PODNE	5	728.2259887	0.983333333	spori
148	s12	13	t57	57	C	1	451	451	word	6	srednje	318	NF	STENA	5	728.2259887	0.983333333	spori
141	s12	13	t58	58	C	1	441	470	word	6	srednje	463	VF	IZVOR	5	728.2259887	0.983333333	spori
156	s12	13	t59	59	C	1	591	1002	word	6	srednje	2365	VF	LJUBAV	6	728.2259887	0.983333333	spori
26	s12	13	t60	60	C	1	741	611	word	6	srednje	2626	VF	PESMA	5	728.2259887	0.983333333	spori
45	s12	13	t61	61	C	1	822	510	word	7	mnogo	118	NF	MOMAK	5	728.2259887	0.983333333	spori
165	s12	13	t62	62	C	1	520	581	word	7	mnogo	129	NF	BLAGO	5	728.2259887	0.983333333	spori
51	s12	13	t63	63	C	1	541	731	word	7	mnogo	134	NF	OSNOV	5	728.2259887	0.983333333	spori
102	s12	13	t64	64	C	1	641	841	word	7	mnogo	193	NF	STADO	5	728.2259887	0.983333333	spori
135	s12	13	t65	65	C	1	441	641	word	7	mnogo	326	NF	SLAVA	5	728.2259887	0.983333333	spori
78	s12	13	t66	66	C	1	551	471	word	7	mnogo	649	VF	KNJIGA	6	728.2259887	0.983333333	spori
88	s12	13	t67	67	C	1	581	541	word	7	mnogo	885	VF	[KOLA	5	728.2259887	0.983333333	spori
146	s12	13	t68	68	C	1	601	821	word	7	mnogo	1023	VF	BORBA	5	728.2259887	0.983333333	spori
119	s12	13	t69	69	C	1	511	601	word	7	mnogo	1565	VF	OBLAK	5	728.2259887	0.983333333	spori
129	s12	13	t70	70	C	1	651	851	word	7	mnogo	2984	VF	SUNCE	5	728.2259887	0.983333333	spori
151	s12	13	t71	71	C	1	761	1071	word	8	mnogo	111	NF	REBRO	5	728.2259887	0.983333333	spori
157	s12	13	t72	72	C	1	521	591	word	8	mnogo	116	NF	KONAC	5	728.2259887	0.983333333	spori
112	s12	13	t73	73	C	1	541	631	word	8	mnogo	135	NF	POTEZ	5	728.2259887	0.983333333	spori
79	s12	13	t74	74	C	1	521	551	word	8	mnogo	159	NF	JUNAK	5	728.2259887	0.983333333	spori
137	s12	13	t75	75	C	1	611	721	word	8	mnogo	212	NF	LANAC	5	728.2259887	0.983333333	spori
149	s12	13	t76	76	C	1	571	451	word	8	mnogo	380	NF	ZLATO	5	728.2259887	0.983333333	spori
44	s12	13	t77	77	C	1	510	761	word	8	mnogo	416	VF	PISMO	5	728.2259887	0.983333333	spori
142	s12	13	t78	78	C	1	641	441	word	8	mnogo	431	VF	ZAKON	5	728.2259887	0.983333333	spori
96	s12	13	t79	79	C	1	711	881	word	8	mnogo	1460	VF	SNAGA	5	728.2259887	0.983333333	spori
41	s12	13	t80	80	C	1	601	871	word	8	mnogo	3952	VF	ZEMLJA	6	728.2259887	0.983333333	spori
77	s12	13	t81	81	C	1	471	871	word	9	mnogo	161	NF	KLASA	5	728.2259887	0.983333333	spori
37	s12	13	t82	82	C	1	591	571	word	9	mnogo	168	NF	PLO^A	5	728.2259887	0.983333333	spori
34	s12	13	t83	83	C	1	600	841	word	9	mnogo	307	NF	KARTA	5	728.2259887	0.983333333	spori
61	s12	13	t84	84	C	1	600	961	word	9	mnogo	328	NF	MRE@A	5	728.2259887	0.983333333	spori
6	s12	13	t85	85	C	1	621	791	word	9	mnogo	399	NF	STANJE	6	728.2259887	0.983333333	spori
75	s12	13	t86	86	C	1	501	791	word	9	mnogo	403	VF	GOVOR	5	728.2259887	0.983333333	spori
38	s12	13	t87	87	C	1	491	591	word	9	mnogo	999	VF	POSAO	5	728.2259887	0.983333333	spori
164	s12	13	t88	88	C	1	581	752	word	9	mnogo	1180	VF	MESTO	5	728.2259887	0.983333333	spori
113	s12	13	t89	89	C	1	661	541	word	9	mnogo	1620	VF	NAROD	5	728.2259887	0.983333333	spori
20	s12	13	t90	90	C	1	621	1011	word	9	mnogo	190	NF	TA^KA	5	728.2259887	0.983333333	spori
83	s12	13	t91	91	C	1	832	871	pseudoword	NA	NA	NA	NA	[AMAT	5	728.2259887	0.983333333	spori
122	s12	13	t92	92	C	1	721	721	pseudoword	NA	NA	NA	NA	MR@KA	5	728.2259887	0.983333333	spori
180	s12	13	t93	93	C	1	862	1021	pseudoword	NA	NA	NA	NA	CESKA	5	728.2259887	0.983333333	spori
16	s12	13	t94	94	C	1	1132	1041	pseudoword	NA	NA	NA	NA	ME@NJA	6	728.2259887	0.983333333	spori
84	s12	13	t95	95	C	1	981	832	pseudoword	NA	NA	NA	NA	GRASE	5	728.2259887	0.983333333	spori
182	s12	13	t96	96	C	1	771	801	pseudoword	NA	NA	NA	NA	GE^AK	5	728.2259887	0.983333333	spori
48	s12	13	t97	97	C	1	911	681	pseudoword	NA	NA	NA	NA	APNIL	5	728.2259887	0.983333333	spori
116	s12	13	t98	98	C	1	1012	1111	pseudoword	NA	NA	NA	NA	OFMEH	5	728.2259887	0.983333333	spori
181	s12	13	t99	99	C	1	801	862	pseudoword	NA	NA	NA	NA	GRE]E	5	728.2259887	0.983333333	spori
133	s12	13	t100	100	C	1	1422	1362	pseudoword	NA	NA	NA	NA	FI[]E	5	728.2259887	0.983333333	spori
155	s12	13	t101	101	C	1	1002	821	pseudoword	NA	NA	NA	NA	ELIPA	5	728.2259887	0.983333333	spori
166	s12	13	t102	102	C	1	681	520	pseudoword	NA	NA	NA	NA	BANTA	5	728.2259887	0.983333333	spori
136	s12	13	t103	103	C	1	721	441	pseudoword	NA	NA	NA	NA	RAFIO	5	728.2259887	0.983333333	spori
35	s12	13	t104	104	C	1	731	600	pseudoword	NA	NA	NA	NA	NESAK	5	728.2259887	0.983333333	spori
105	s12	13	t105	105	C	1	731	631	pseudoword	NA	NA	NA	NA	ULPEH	5	728.2259887	0.983333333	spori
168	s12	13	t106	106	C	1	891	771	pseudoword	NA	NA	NA	NA	UKLOV	5	728.2259887	0.983333333	spori
108	s12	13	t107	107	C	1	711	621	pseudoword	NA	NA	NA	NA	DINAT	5	728.2259887	0.983333333	spori
99	s12	13	t108	108	E	0	NA	1182	pseudoword	NA	NA	NA	NA	ODGOR	5	728.2259887	0.983333333	spori
12	s12	13	t109	109	C	1	971	1022	pseudoword	NA	NA	NA	NA	SEFKA	5	728.2259887	0.983333333	spori
169	s12	13	t110	110	C	1	742	891	pseudoword	NA	NA	NA	NA	VLABA	5	728.2259887	0.983333333	spori
65	s12	13	t111	111	C	1	811	621	pseudoword	NA	NA	NA	NA	GUTON	5	728.2259887	0.983333333	spori
19	s12	13	t112	112	C	1	1011	731	pseudoword	NA	NA	NA	NA	PUNJKA	6	728.2259887	0.983333333	spori
121	s12	13	t113	113	C	1	721	641	pseudoword	NA	NA	NA	NA	KELJAK	6	728.2259887	0.983333333	spori
5	s12	13	t114	114	C	1	791	791	pseudoword	NA	NA	NA	NA	MRAT	4	728.2259887	0.983333333	spori
80	s12	13	t115	115	C	1	711	521	pseudoword	NA	NA	NA	NA	RINUT	5	728.2259887	0.983333333	spori
174	s12	13	t116	116	C	1	691	411	pseudoword	NA	NA	NA	NA	VIMIK	5	728.2259887	0.983333333	spori
15	s12	13	t117	117	C	1	1041	621	pseudoword	NA	NA	NA	NA	FAGLA	5	728.2259887	0.983333333	spori
144	s12	13	t118	118	C	1	811	821	pseudoword	NA	NA	NA	NA	MINJIS	6	728.2259887	0.983333333	spori
95	s12	13	t119	119	C	1	881	741	pseudoword	NA	NA	NA	NA	TRANA	5	728.2259887	0.983333333	spori
11	s12	13	t120	120	C	1	1022	1161	pseudoword	NA	NA	NA	NA	UKICA	5	728.2259887	0.983333333	spori
161	s12	13	t121	121	C	1	851	460	pseudoword	NA	NA	NA	NA	ZAROS	5	728.2259887	0.983333333	spori
70	s12	13	t122	122	C	1	1111	580	pseudoword	NA	NA	NA	NA	OGZIR	5	728.2259887	0.983333333	spori
43	s12	13	t123	123	C	1	761	501	pseudoword	NA	NA	NA	NA	DA@NJA	6	728.2259887	0.983333333	spori
159	s12	13	t124	124	C	1	621	631	pseudoword	NA	NA	NA	NA	SVUST	5	728.2259887	0.983333333	spori
32	s12	13	t125	125	C	1	781	711	pseudoword	NA	NA	NA	NA	MOTOK	5	728.2259887	0.983333333	spori
27	s12	13	t126	126	C	1	751	741	pseudoword	NA	NA	NA	NA	ZRONO	5	728.2259887	0.983333333	spori
1	s12	13	t127	127	C	1	671	prvi_trial	pseudoword	NA	NA	NA	NA	POGO]	5	728.2259887	0.983333333	spori
125	s12	13	t128	128	C	1	731	751	pseudoword	NA	NA	NA	NA	VRUDI	5	728.2259887	0.983333333	spori
40	s12	13	t129	129	C	1	871	761	pseudoword	NA	NA	NA	NA	FRANA	5	728.2259887	0.983333333	spori
8	s12	13	t130	130	C	1	711	531	pseudoword	NA	NA	NA	NA	GETAR	5	728.2259887	0.983333333	spori
167	s12	13	t131	131	C	1	771	681	pseudoword	NA	NA	NA	NA	JOMAD	5	728.2259887	0.983333333	spori
183	s12	13	t132	132	C	1	761	771	pseudoword	NA	NA	NA	NA	LONTA	5	728.2259887	0.983333333	spori
22	s12	13	t133	133	C	1	1232	511	pseudoword	NA	NA	NA	NA	IMRA^	5	728.2259887	0.983333333	spori
109	s12	13	t134	134	C	1	821	711	pseudoword	NA	NA	NA	NA	DRI^A	5	728.2259887	0.983333333	spori
4	s12	13	t135	135	C	1	791	761	pseudoword	NA	NA	NA	NA	SADEZ	5	728.2259887	0.983333333	spori
68	s12	13	t136	136	C	1	861	581	pseudoword	NA	NA	NA	NA	SRUPA	5	728.2259887	0.983333333	spori
124	s12	13	t137	137	C	1	751	691	pseudoword	NA	NA	NA	NA	GESEN	5	728.2259887	0.983333333	spori
128	s12	13	t138	138	C	1	851	671	pseudoword	NA	NA	NA	NA	LORAK	5	728.2259887	0.983333333	spori
57	s12	13	t139	139	C	1	671	701	pseudoword	NA	NA	NA	NA	HRE]A	5	728.2259887	0.983333333	spori
145	s12	13	t140	140	C	1	821	811	pseudoword	NA	NA	NA	NA	PLJICA	6	728.2259887	0.983333333	spori
82	s12	13	t141	141	C	1	871	531	pseudoword	NA	NA	NA	NA	ORSAN	5	728.2259887	0.983333333	spori
91	s12	13	t142	142	C	1	742	591	pseudoword	NA	NA	NA	NA	GORMA	5	728.2259887	0.983333333	spori
72	s12	13	t143	143	C	1	801	531	pseudoword	NA	NA	NA	NA	FLATO	5	728.2259887	0.983333333	spori
114	s12	13	t144	144	E	0	NA	661	pseudoword	NA	NA	NA	NA	KLURA	5	728.2259887	0.983333333	spori
154	s12	13	t145	145	C	1	821	621	pseudoword	NA	NA	NA	NA	MONOR	5	728.2259887	0.983333333	spori
85	s12	13	t146	146	C	1	832	981	pseudoword	NA	NA	NA	NA	LONDE	5	728.2259887	0.983333333	spori
56	s12	13	t147	147	C	1	701	570	pseudoword	NA	NA	NA	NA	STEDA	5	728.2259887	0.983333333	spori
117	s12	13	t148	148	C	1	821	1012	pseudoword	NA	NA	NA	NA	IZVOK	5	728.2259887	0.983333333	spori
52	s12	13	t149	149	C	1	851	541	pseudoword	NA	NA	NA	NA	LJUBANJ	7	728.2259887	0.983333333	spori
49	s12	13	t150	150	C	1	821	911	pseudoword	NA	NA	NA	NA	PE^MA	5	728.2259887	0.983333333	spori
10	s12	13	t151	151	C	1	1161	821	pseudoword	NA	NA	NA	NA	RORAK	5	728.2259887	0.983333333	spori
127	s12	13	t152	152	C	1	671	852	pseudoword	NA	NA	NA	NA	FLAGO	5	728.2259887	0.983333333	spori
162	s12	13	t153	153	C	1	891	851	pseudoword	NA	NA	NA	NA	ORNOV	5	728.2259887	0.983333333	spori
74	s12	13	t154	154	C	1	791	530	pseudoword	NA	NA	NA	NA	STAKO	5	728.2259887	0.983333333	spori
86	s12	13	t155	155	C	1	1011	832	pseudoword	NA	NA	NA	NA	SLAKA	5	728.2259887	0.983333333	spori
18	s12	13	t156	156	C	1	731	651	pseudoword	NA	NA	NA	NA	KRIGA	5	728.2259887	0.983333333	spori
60	s12	13	t157	157	C	1	961	831	pseudoword	NA	NA	NA	NA	[KONJA	6	728.2259887	0.983333333	spori
153	s12	13	t158	158	C	1	621	551	pseudoword	NA	NA	NA	NA	BORLA	5	728.2259887	0.983333333	spori
89	s12	13	t159	159	C	1	711	581	pseudoword	NA	NA	NA	NA	OBLAD	5	728.2259887	0.983333333	spori
130	s12	13	t160	160	C	1	691	651	pseudoword	NA	NA	NA	NA	GUNCE	5	728.2259887	0.983333333	spori
177	s12	13	t161	161	C	1	651	491	pseudoword	NA	NA	NA	NA	GEBRO	5	728.2259887	0.983333333	spori
172	s12	13	t162	162	E	0	NA	531	pseudoword	NA	NA	NA	NA	JONAC	5	728.2259887	0.983333333	spori
101	s12	13	t163	163	C	1	841	451	pseudoword	NA	NA	NA	NA	MOTEZ	5	728.2259887	0.983333333	spori
9	s12	13	t164	164	C	1	821	711	pseudoword	NA	NA	NA	NA	JUPAK	5	728.2259887	0.983333333	spori
178	s12	13	t165	165	C	1	1051	651	pseudoword	NA	NA	NA	NA	KANAC	5	728.2259887	0.983333333	spori
163	s12	13	t166	166	C	1	752	891	pseudoword	NA	NA	NA	NA	ZLARO	5	728.2259887	0.983333333	spori
54	s12	13	t167	167	C	1	671	841	pseudoword	NA	NA	NA	NA	KISMO	5	728.2259887	0.983333333	spori
59	s12	13	t168	168	C	1	831	1092	pseudoword	NA	NA	NA	NA	VAKON	5	728.2259887	0.983333333	spori
94	s12	13	t169	169	C	1	741	521	pseudoword	NA	NA	NA	NA	SNARA	5	728.2259887	0.983333333	spori
29	s12	13	t170	170	C	1	812	601	pseudoword	NA	NA	NA	NA	KEMLJA	6	728.2259887	0.983333333	spori
66	s12	13	t171	171	C	1	1132	811	pseudoword	NA	NA	NA	NA	KLAFA	5	728.2259887	0.983333333	spori
103	s12	13	t172	172	C	1	952	641	pseudoword	NA	NA	NA	NA	PLOFA	5	728.2259887	0.983333333	spori
138	s12	13	t173	173	C	1	921	611	pseudoword	NA	NA	NA	NA	KAMTA	5	728.2259887	0.983333333	spori
53	s12	13	t174	174	C	1	841	851	pseudoword	NA	NA	NA	NA	MREDA	5	728.2259887	0.983333333	spori
132	s12	13	t175	175	C	1	1362	600	pseudoword	NA	NA	NA	NA	STAME	5	728.2259887	0.983333333	spori
150	s12	13	t176	176	C	1	1071	571	pseudoword	NA	NA	NA	NA	MOVOR	5	728.2259887	0.983333333	spori
63	s12	13	t177	177	C	1	1002	520	pseudoword	NA	NA	NA	NA	MOSAO	5	728.2259887	0.983333333	spori
33	s12	13	t178	178	C	1	841	781	pseudoword	NA	NA	NA	NA	LESTO	5	728.2259887	0.983333333	spori
98	s12	13	t179	179	C	1	1182	591	pseudoword	NA	NA	NA	NA	GAROD	5	728.2259887	0.983333333	spori
39	s12	13	t180	180	C	1	761	491	pseudoword	NA	NA	NA	NA	LA^KA	5	728.2259887	0.983333333	spori
90	s13	12	t1	1	C	1	561	771	word	1	malo	302	NF	[APAT	5	645.8934911	0.938888889	brzi
44	s13	12	t2	2	C	1	601	571	word	1	malo	320	NF	MR@NJA	6	645.8934911	0.938888889	brzi
52	s13	12	t3	3	C	1	1001	531	word	1	malo	391	NF	CESTA	5	645.8934911	0.938888889	brzi
47	s13	12	t4	4	C	1	651	551	word	1	malo	414	VF	^E@NJA	6	645.8934911	0.938888889	brzi
104	s13	12	t5	5	C	1	741	270	word	1	malo	424	VF	GRANJE	6	645.8934911	0.938888889	brzi
128	s13	12	t6	6	C	1	521	771	word	1	malo	448	VF	DE^AK	5	645.8934911	0.938888889	brzi
136	s13	12	t7	7	C	1	540	540	word	1	malo	453	VF	APRIL	5	645.8934911	0.938888889	brzi
72	s13	12	t8	8	C	1	521	561	word	1	malo	720	VF	OSMEH	5	645.8934911	0.938888889	brzi
41	s13	12	t9	9	C	1	621	641	word	1	malo	786	VF	CVE]E	5	645.8934911	0.938888889	brzi
184	s13	12	t10	10	C	1	290	0	word	1	malo	1085	VF	LI[]E	5	645.8934911	0.938888889	brzi
157	s13	12	t11	11	C	1	541	701	word	2	malo	254	NF	EKIPA	5	645.8934911	0.938888889	brzi
63	s13	12	t12	12	C	1	520	971	word	2	malo	272	NF	BA[TA	5	645.8934911	0.938888889	brzi
145	s13	12	t13	13	C	1	671	701	word	2	malo	317	NF	RADIO	5	645.8934911	0.938888889	brzi
46	s13	12	t14	14	C	1	551	851	word	2	malo	320	NF	PESAK	5	645.8934911	0.938888889	brzi
174	s13	12	t15	15	C	1	501	561	word	2	malo	374	NF	USPEH	5	645.8934911	0.938888889	brzi
119	s13	12	t16	16	C	1	621	491	word	2	malo	422	VF	USLOV	5	645.8934911	0.938888889	brzi
158	s13	12	t17	17	C	1	661	541	word	2	malo	894	VF	DINAR	5	645.8934911	0.938888889	brzi
77	s13	12	t18	18	C	1	721	300	word	2	malo	1052	VF	ODBOR	5	645.8934911	0.938888889	brzi
22	s13	12	t19	19	E	0	NA	610	word	2	malo	1209	VF	SENKA	5	645.8934911	0.938888889	brzi
110	s13	12	t20	20	C	1	500	641	word	2	malo	1452	VF	VLADA	5	645.8934911	0.938888889	brzi
88	s13	12	t21	21	C	1	531	571	word	3	malo	334	NF	SUTON	5	645.8934911	0.938888889	brzi
81	s13	12	t22	22	C	1	791	661	word	3	malo	335	NF	PU[KA	5	645.8934911	0.938888889	brzi
11	s13	12	t23	23	C	1	611	531	word	3	malo	335	NF	SELJAK	6	645.8934911	0.938888889	brzi
132	s13	12	t24	24	E	0	NA	711	word	3	malo	348	NF	SPRAT	5	645.8934911	0.938888889	brzi
191	s13	12	t25	25	C	1	611	671	word	3	malo	414	VF	MINUT	5	645.8934911	0.938888889	brzi
38	s13	12	t26	26	E	0	NA	521	word	3	malo	430	VF	VIDIK	5	645.8934911	0.938888889	brzi
125	s13	12	t27	27	C	1	580	681	word	3	malo	631	VF	MAGLA	5	645.8934911	0.938888889	brzi
10	s13	12	t28	28	C	1	531	861	word	3	malo	657	VF	MIRIS	5	645.8934911	0.938888889	brzi
87	s13	12	t29	29	C	1	571	541	word	3	malo	1470	VF	TRAVA	5	645.8934911	0.938888889	brzi
124	s13	12	t30	30	C	1	681	570	word	3	malo	1847	VF	ULICA	5	645.8934911	0.938888889	brzi
49	s13	12	t31	31	E	0	NA	731	word	4	srednje	278	NF	ZANOS	5	645.8934911	0.938888889	brzi
167	s13	12	t32	32	C	1	962	661	word	4	srednje	280	NF	OBZIR	5	645.8934911	0.938888889	brzi
96	s13	12	t33	33	C	1	591	671	word	4	srednje	295	NF	PA@NJA	6	645.8934911	0.938888889	brzi
93	s13	12	t34	34	C	1	521	591	word	4	srednje	314	NF	SVEST	5	645.8934911	0.938888889	brzi
169	s13	12	t35	35	C	1	791	671	word	4	srednje	328	NF	POTOK	5	645.8934911	0.938888889	brzi
75	s13	12	t36	36	E	0	NA	491	word	4	srednje	375	NF	ZVONO	5	645.8934911	0.938888889	brzi
42	s13	12	t37	37	C	1	762	621	word	4	srednje	484	VF	POMO]	5	645.8934911	0.938888889	brzi
92	s13	12	t38	38	C	1	591	551	word	4	srednje	831	VF	GRUDI	5	645.8934911	0.938888889	brzi
189	s13	12	t39	39	C	1	871	680	word	4	srednje	1256	VF	GRANA	5	645.8934911	0.938888889	brzi
61	s13	12	t40	40	C	1	641	651	word	4	srednje	2274	VF	VETAR	5	645.8934911	0.938888889	brzi
83	s13	12	t41	41	C	1	601	581	word	5	srednje	262	NF	KOMAD	5	645.8934911	0.938888889	brzi
37	s13	12	t42	42	C	1	521	721	word	5	srednje	270	NF	LOPTA	5	645.8934911	0.938888889	brzi
142	s13	12	t43	43	C	1	601	641	word	5	srednje	281	NF	IGRA^	5	645.8934911	0.938888889	brzi
25	s13	12	t44	44	C	1	631	1262	word	5	srednje	409	VF	PRI^A	5	645.8934911	0.938888889	brzi
146	s13	12	t45	45	C	1	540	671	word	5	srednje	517	VF	SAVEZ	5	645.8934911	0.938888889	brzi
20	s13	12	t46	46	C	1	630	661	word	5	srednje	521	VF	GRUPA	5	645.8934911	0.938888889	brzi
3	s13	12	t47	47	C	1	651	591	word	5	srednje	828	VF	JESEN	5	645.8934911	0.938888889	brzi
172	s13	12	t48	48	C	1	611	1072	word	5	srednje	981	VF	KORAK	5	645.8934911	0.938888889	brzi
149	s13	12	t49	49	C	1	470	560	word	5	srednje	1011	VF	SRE]A	5	645.8934911	0.938888889	brzi
152	s13	12	t50	50	C	1	500	722	word	5	srednje	1671	VF	PTICA	5	645.8934911	0.938888889	brzi
144	s13	12	t51	51	C	1	701	551	word	6	srednje	148	NF	ORGAN	5	645.8934911	0.938888889	brzi
26	s13	12	t52	52	C	1	591	631	word	6	srednje	164	NF	FORMA	5	645.8934911	0.938888889	brzi
51	s13	12	t53	53	C	1	531	371	word	6	srednje	179	NF	BLATO	5	645.8934911	0.938888889	brzi
28	s13	12	t54	54	C	1	581	601	word	6	srednje	184	NF	KLUPA	5	645.8934911	0.938888889	brzi
179	s13	12	t55	55	C	1	711	641	word	6	srednje	216	NF	PONOR	5	645.8934911	0.938888889	brzi
17	s13	12	t56	56	C	1	541	531	word	6	srednje	255	NF	PODNE	5	645.8934911	0.938888889	brzi
13	s13	12	t57	57	C	1	581	481	word	6	srednje	318	NF	STENA	5	645.8934911	0.938888889	brzi
8	s13	12	t58	58	C	1	691	821	word	6	srednje	463	VF	IZVOR	5	645.8934911	0.938888889	brzi
122	s13	12	t59	59	C	1	510	1111	word	6	srednje	2365	VF	LJUBAV	6	645.8934911	0.938888889	brzi
2	s13	12	t60	60	C	1	591	711	word	6	srednje	2626	VF	PESMA	5	645.8934911	0.938888889	brzi
57	s13	12	t61	61	C	1	541	681	word	7	mnogo	118	NF	MOMAK	5	645.8934911	0.938888889	brzi
98	s13	12	t62	62	C	1	501	541	word	7	mnogo	129	NF	BLAGO	5	645.8934911	0.938888889	brzi
185	s13	12	t63	63	E	0	NA	290	word	7	mnogo	134	NF	OSNOV	5	645.8934911	0.938888889	brzi
182	s13	12	t64	64	E	0	NA	771	word	7	mnogo	193	NF	STADO	5	645.8934911	0.938888889	brzi
82	s13	12	t65	65	C	1	581	791	word	7	mnogo	326	NF	SLAVA	5	645.8934911	0.938888889	brzi
180	s13	12	t66	66	C	1	511	711	word	7	mnogo	649	VF	KNJIGA	6	645.8934911	0.938888889	brzi
134	s13	12	t67	67	C	1	531	361	word	7	mnogo	885	VF	[KOLA	5	645.8934911	0.938888889	brzi
66	s13	12	t68	68	C	1	631	661	word	7	mnogo	1023	VF	BORBA	5	645.8934911	0.938888889	brzi
112	s13	12	t69	69	C	1	501	511	word	7	mnogo	1565	VF	OBLAK	5	645.8934911	0.938888889	brzi
9	s13	12	t70	70	C	1	861	691	word	7	mnogo	2984	VF	SUNCE	5	645.8934911	0.938888889	brzi
114	s13	12	t71	71	E	0	NA	621	word	8	mnogo	111	NF	REBRO	5	645.8934911	0.938888889	brzi
12	s13	12	t72	72	C	1	481	611	word	8	mnogo	116	NF	KONAC	5	645.8934911	0.938888889	brzi
156	s13	12	t73	73	C	1	701	521	word	8	mnogo	135	NF	POTEZ	5	645.8934911	0.938888889	brzi
117	s13	12	t74	74	C	1	621	511	word	8	mnogo	159	NF	JUNAK	5	645.8934911	0.938888889	brzi
143	s13	12	t75	75	C	1	551	601	word	8	mnogo	212	NF	LANAC	5	645.8934911	0.938888889	brzi
165	s13	12	t76	76	C	1	511	631	word	8	mnogo	380	NF	ZLATO	5	645.8934911	0.938888889	brzi
130	s13	12	t77	77	C	1	521	691	word	8	mnogo	416	VF	PISMO	5	645.8934911	0.938888889	brzi
60	s13	12	t78	78	C	1	651	771	word	8	mnogo	431	VF	ZAKON	5	645.8934911	0.938888889	brzi
4	s13	12	t79	79	C	1	581	651	word	8	mnogo	1460	VF	SNAGA	5	645.8934911	0.938888889	brzi
19	s13	12	t80	80	C	1	661	791	word	8	mnogo	3952	VF	ZEMLJA	6	645.8934911	0.938888889	brzi
163	s13	12	t81	81	C	1	781	501	word	9	mnogo	161	NF	KLASA	5	645.8934911	0.938888889	brzi
118	s13	12	t82	82	C	1	491	621	word	9	mnogo	168	NF	PLO^A	5	645.8934911	0.938888889	brzi
109	s13	12	t83	83	C	1	641	671	word	9	mnogo	307	NF	KARTA	5	645.8934911	0.938888889	brzi
148	s13	12	t84	84	C	1	560	681	word	9	mnogo	328	NF	MRE@A	5	645.8934911	0.938888889	brzi
161	s13	12	t85	85	C	1	591	651	word	9	mnogo	399	NF	STANJE	6	645.8934911	0.938888889	brzi
155	s13	12	t86	86	C	1	521	361	word	9	mnogo	403	VF	GOVOR	5	645.8934911	0.938888889	brzi
139	s13	12	t87	87	C	1	611	861	word	9	mnogo	999	VF	POSAO	5	645.8934911	0.938888889	brzi
162	s13	12	t88	88	C	1	501	591	word	9	mnogo	1180	VF	MESTO	5	645.8934911	0.938888889	brzi
91	s13	12	t89	89	C	1	551	561	word	9	mnogo	1620	VF	NAROD	5	645.8934911	0.938888889	brzi
16	s13	12	t90	90	C	1	531	701	word	9	mnogo	190	NF	TA^KA	5	645.8934911	0.938888889	brzi
67	s13	12	t91	91	C	1	731	631	pseudoword	NA	NA	NA	NA	[AMAT	5	645.8934911	0.938888889	brzi
14	s13	12	t92	92	C	1	631	581	pseudoword	NA	NA	NA	NA	MR@KA	5	645.8934911	0.938888889	brzi
173	s13	12	t93	93	C	1	561	611	pseudoword	NA	NA	NA	NA	CESKA	5	645.8934911	0.938888889	brzi
53	s13	12	t94	94	C	1	892	1001	pseudoword	NA	NA	NA	NA	ME@NJA	6	645.8934911	0.938888889	brzi
55	s13	12	t95	95	C	1	621	731	pseudoword	NA	NA	NA	NA	GRASE	5	645.8934911	0.938888889	brzi
170	s13	12	t96	96	C	1	631	791	pseudoword	NA	NA	NA	NA	GE^AK	5	645.8934911	0.938888889	brzi
70	s13	12	t97	97	C	1	621	611	pseudoword	NA	NA	NA	NA	APNIL	5	645.8934911	0.938888889	brzi
43	s13	12	t98	98	C	1	571	762	pseudoword	NA	NA	NA	NA	OFMEH	5	645.8934911	0.938888889	brzi
29	s13	12	t99	99	C	1	711	581	pseudoword	NA	NA	NA	NA	GRE]E	5	645.8934911	0.938888889	brzi
64	s13	12	t100	100	C	1	721	520	pseudoword	NA	NA	NA	NA	FI[]E	5	645.8934911	0.938888889	brzi
94	s13	12	t101	101	C	1	551	521	pseudoword	NA	NA	NA	NA	ELIPA	5	645.8934911	0.938888889	brzi
89	s13	12	t102	102	C	1	771	531	pseudoword	NA	NA	NA	NA	BANTA	5	645.8934911	0.938888889	brzi
56	s13	12	t103	103	C	1	681	621	pseudoword	NA	NA	NA	NA	RAFIO	5	645.8934911	0.938888889	brzi
32	s13	12	t104	104	C	1	551	721	pseudoword	NA	NA	NA	NA	NESAK	5	645.8934911	0.938888889	brzi
65	s13	12	t105	105	C	1	661	721	pseudoword	NA	NA	NA	NA	ULPEH	5	645.8934911	0.938888889	brzi
127	s13	12	t106	106	C	1	771	661	pseudoword	NA	NA	NA	NA	UKLOV	5	645.8934911	0.938888889	brzi
138	s13	12	t107	107	C	1	861	610	pseudoword	NA	NA	NA	NA	DINAT	5	645.8934911	0.938888889	brzi
5	s13	12	t108	108	C	1	741	581	pseudoword	NA	NA	NA	NA	ODGOR	5	645.8934911	0.938888889	brzi
33	s13	12	t109	109	C	1	661	551	pseudoword	NA	NA	NA	NA	SEFKA	5	645.8934911	0.938888889	brzi
15	s13	12	t110	110	C	1	701	631	pseudoword	NA	NA	NA	NA	VLABA	5	645.8934911	0.938888889	brzi
34	s13	12	t111	111	C	1	551	661	pseudoword	NA	NA	NA	NA	GUTON	5	645.8934911	0.938888889	brzi
147	s13	12	t112	112	C	1	681	540	pseudoword	NA	NA	NA	NA	PUNJKA	6	645.8934911	0.938888889	brzi
1	s13	12	t113	113	C	1	711	prvi_trial	pseudoword	NA	NA	NA	NA	KELJAK	6	645.8934911	0.938888889	brzi
80	s13	12	t114	114	C	1	661	600	pseudoword	NA	NA	NA	NA	MRAT	4	645.8934911	0.938888889	brzi
62	s13	12	t115	115	C	1	971	641	pseudoword	NA	NA	NA	NA	RINUT	5	645.8934911	0.938888889	brzi
116	s13	12	t116	116	C	1	511	291	pseudoword	NA	NA	NA	NA	VIMIK	5	645.8934911	0.938888889	brzi
177	s13	12	t117	117	C	1	731	611	pseudoword	NA	NA	NA	NA	FAGLA	5	645.8934911	0.938888889	brzi
71	s13	12	t118	118	C	1	561	621	pseudoword	NA	NA	NA	NA	MINJIS	6	645.8934911	0.938888889	brzi
120	s13	12	t119	119	C	1	671	621	pseudoword	NA	NA	NA	NA	TRANA	5	645.8934911	0.938888889	brzi
129	s13	12	t120	120	C	1	691	521	pseudoword	NA	NA	NA	NA	UKICA	5	645.8934911	0.938888889	brzi
35	s13	12	t121	121	C	1	731	551	pseudoword	NA	NA	NA	NA	ZAROS	5	645.8934911	0.938888889	brzi
31	s13	12	t122	122	C	1	721	600	pseudoword	NA	NA	NA	NA	OGZIR	5	645.8934911	0.938888889	brzi
86	s13	12	t123	123	C	1	541	611	pseudoword	NA	NA	NA	NA	DA@NJA	6	645.8934911	0.938888889	brzi
85	s13	12	t124	124	C	1	611	711	pseudoword	NA	NA	NA	NA	SVUST	5	645.8934911	0.938888889	brzi
69	s13	12	t125	125	C	1	611	661	pseudoword	NA	NA	NA	NA	MOTOK	5	645.8934911	0.938888889	brzi
181	s13	12	t126	126	C	1	771	511	pseudoword	NA	NA	NA	NA	ZRONO	5	645.8934911	0.938888889	brzi
108	s13	12	t127	127	C	1	671	591	pseudoword	NA	NA	NA	NA	POGO]	5	645.8934911	0.938888889	brzi
176	s13	12	t128	128	C	1	611	821	pseudoword	NA	NA	NA	NA	VRUDI	5	645.8934911	0.938888889	brzi
188	s13	12	t129	129	C	1	680	991	pseudoword	NA	NA	NA	NA	FRANA	5	645.8934911	0.938888889	brzi
135	s13	12	t130	130	C	1	540	531	pseudoword	NA	NA	NA	NA	GETAR	5	645.8934911	0.938888889	brzi
40	s13	12	t131	131	C	1	641	320	pseudoword	NA	NA	NA	NA	JOMAD	5	645.8934911	0.938888889	brzi
102	s13	12	t132	132	E	0	NA	841	pseudoword	NA	NA	NA	NA	LONTA	5	645.8934911	0.938888889	brzi
111	s13	12	t133	133	C	1	511	500	pseudoword	NA	NA	NA	NA	IMRA^	5	645.8934911	0.938888889	brzi
131	s13	12	t134	134	C	1	711	521	pseudoword	NA	NA	NA	NA	DRI^A	5	645.8934911	0.938888889	brzi
137	s13	12	t135	135	C	1	610	540	pseudoword	NA	NA	NA	NA	SADEZ	5	645.8934911	0.938888889	brzi
97	s13	12	t136	136	C	1	541	591	pseudoword	NA	NA	NA	NA	SRUPA	5	645.8934911	0.938888889	brzi
68	s13	12	t137	137	C	1	661	731	pseudoword	NA	NA	NA	NA	GESEN	5	645.8934911	0.938888889	brzi
113	s13	12	t138	138	C	1	621	501	pseudoword	NA	NA	NA	NA	LORAK	5	645.8934911	0.938888889	brzi
45	s13	12	t139	139	C	1	851	601	pseudoword	NA	NA	NA	NA	HRE]A	5	645.8934911	0.938888889	brzi
36	s13	12	t140	140	C	1	721	731	pseudoword	NA	NA	NA	NA	PLJICA	6	645.8934911	0.938888889	brzi
151	s13	12	t141	141	C	1	722	651	pseudoword	NA	NA	NA	NA	ORSAN	5	645.8934911	0.938888889	brzi
21	s13	12	t142	142	C	1	610	630	pseudoword	NA	NA	NA	NA	GORMA	5	645.8934911	0.938888889	brzi
178	s13	12	t143	143	C	1	641	731	pseudoword	NA	NA	NA	NA	FLATO	5	645.8934911	0.938888889	brzi
153	s13	12	t144	144	E	0	NA	500	pseudoword	NA	NA	NA	NA	KLURA	5	645.8934911	0.938888889	brzi
101	s13	12	t145	145	C	1	841	571	pseudoword	NA	NA	NA	NA	MONOR	5	645.8934911	0.938888889	brzi
79	s13	12	t146	146	C	1	600	570	pseudoword	NA	NA	NA	NA	LONDE	5	645.8934911	0.938888889	brzi
58	s13	12	t147	147	C	1	761	541	pseudoword	NA	NA	NA	NA	STEDA	5	645.8934911	0.938888889	brzi
175	s13	12	t148	148	C	1	821	501	pseudoword	NA	NA	NA	NA	IZVOK	5	645.8934911	0.938888889	brzi
24	s13	12	t149	149	C	1	1262	300	pseudoword	NA	NA	NA	NA	LJUBANJ	7	645.8934911	0.938888889	brzi
18	s13	12	t150	150	C	1	791	541	pseudoword	NA	NA	NA	NA	PE^MA	5	645.8934911	0.938888889	brzi
7	s13	12	t151	151	C	1	821	701	pseudoword	NA	NA	NA	NA	RORAK	5	645.8934911	0.938888889	brzi
159	s13	12	t152	152	C	1	561	661	pseudoword	NA	NA	NA	NA	FLAGO	5	645.8934911	0.938888889	brzi
160	s13	12	t153	153	C	1	651	561	pseudoword	NA	NA	NA	NA	ORNOV	5	645.8934911	0.938888889	brzi
171	s13	12	t154	154	C	1	1072	631	pseudoword	NA	NA	NA	NA	STAKO	5	645.8934911	0.938888889	brzi
73	s13	12	t155	155	E	0	NA	521	pseudoword	NA	NA	NA	NA	SLAKA	5	645.8934911	0.938888889	brzi
6	s13	12	t156	156	C	1	701	741	pseudoword	NA	NA	NA	NA	KRIGA	5	645.8934911	0.938888889	brzi
121	s13	12	t157	157	C	1	1111	671	pseudoword	NA	NA	NA	NA	[KONJA	6	645.8934911	0.938888889	brzi
141	s13	12	t158	158	C	1	641	641	pseudoword	NA	NA	NA	NA	BORLA	5	645.8934911	0.938888889	brzi
78	s13	12	t159	159	C	1	570	721	pseudoword	NA	NA	NA	NA	OBLAD	5	645.8934911	0.938888889	brzi
150	s13	12	t160	160	C	1	651	470	pseudoword	NA	NA	NA	NA	GUNCE	5	645.8934911	0.938888889	brzi
48	s13	12	t161	161	C	1	731	651	pseudoword	NA	NA	NA	NA	GEBRO	5	645.8934911	0.938888889	brzi
123	s13	12	t162	162	C	1	570	510	pseudoword	NA	NA	NA	NA	JONAC	5	645.8934911	0.938888889	brzi
105	s13	12	t163	163	C	1	471	741	pseudoword	NA	NA	NA	NA	MOTEZ	5	645.8934911	0.938888889	brzi
30	s13	12	t164	164	C	1	600	711	pseudoword	NA	NA	NA	NA	JUPAK	5	645.8934911	0.938888889	brzi
95	s13	12	t165	165	C	1	671	551	pseudoword	NA	NA	NA	NA	KANAC	5	645.8934911	0.938888889	brzi
59	s13	12	t166	166	C	1	771	761	pseudoword	NA	NA	NA	NA	ZLARO	5	645.8934911	0.938888889	brzi
166	s13	12	t167	167	C	1	661	511	pseudoword	NA	NA	NA	NA	KISMO	5	645.8934911	0.938888889	brzi
107	s13	12	t168	168	C	1	591	581	pseudoword	NA	NA	NA	NA	VAKON	5	645.8934911	0.938888889	brzi
106	s13	12	t169	169	C	1	581	471	pseudoword	NA	NA	NA	NA	SNARA	5	645.8934911	0.938888889	brzi
84	s13	12	t170	170	C	1	711	601	pseudoword	NA	NA	NA	NA	KEMLJA	6	645.8934911	0.938888889	brzi
99	s13	12	t171	171	C	1	591	501	pseudoword	NA	NA	NA	NA	KLAFA	5	645.8934911	0.938888889	brzi
190	s13	12	t172	172	C	1	671	871	pseudoword	NA	NA	NA	NA	PLOFA	5	645.8934911	0.938888889	brzi
187	s13	12	t173	173	C	1	991	291	pseudoword	NA	NA	NA	NA	KAMTA	5	645.8934911	0.938888889	brzi
54	s13	12	t174	174	C	1	731	892	pseudoword	NA	NA	NA	NA	MREDA	5	645.8934911	0.938888889	brzi
164	s13	12	t175	175	C	1	631	781	pseudoword	NA	NA	NA	NA	STAME	5	645.8934911	0.938888889	brzi
140	s13	12	t176	176	C	1	641	611	pseudoword	NA	NA	NA	NA	MOVOR	5	645.8934911	0.938888889	brzi
27	s13	12	t177	177	C	1	601	591	pseudoword	NA	NA	NA	NA	MOSAO	5	645.8934911	0.938888889	brzi
126	s13	12	t178	178	C	1	661	580	pseudoword	NA	NA	NA	NA	LESTO	5	645.8934911	0.938888889	brzi
100	s13	12	t179	179	C	1	571	591	pseudoword	NA	NA	NA	NA	GAROD	5	645.8934911	0.938888889	brzi
168	s13	12	t180	180	C	1	671	962	pseudoword	NA	NA	NA	NA	LA^KA	5	645.8934911	0.938888889	brzi
33	s14	11	t1	1	E	0	NA	721	word	1	malo	302	NF	[APAT	5	671.2383721	0.955555556	brzi
51	s14	11	t2	2	C	1	611	571	word	1	malo	320	NF	MR@NJA	6	671.2383721	0.955555556	brzi
40	s14	11	t3	3	E	0	NA	811	word	1	malo	391	NF	CESTA	5	671.2383721	0.955555556	brzi
54	s14	11	t4	4	C	1	891	821	word	1	malo	414	VF	^E@NJA	6	671.2383721	0.955555556	brzi
70	s14	11	t5	5	C	1	872	631	word	1	malo	424	VF	GRANJE	6	671.2383721	0.955555556	brzi
152	s14	11	t6	6	C	1	551	541	word	1	malo	448	VF	DE^AK	5	671.2383721	0.955555556	brzi
133	s14	11	t7	7	C	1	621	641	word	1	malo	453	VF	APRIL	5	671.2383721	0.955555556	brzi
18	s14	11	t8	8	C	1	591	641	word	1	malo	720	VF	OSMEH	5	671.2383721	0.955555556	brzi
113	s14	11	t9	9	C	1	781	781	word	1	malo	786	VF	CVE]E	5	671.2383721	0.955555556	brzi
103	s14	11	t10	10	C	1	851	190	word	1	malo	1085	VF	LI[]E	5	671.2383721	0.955555556	brzi
105	s14	11	t11	11	C	1	611	691	word	2	malo	254	NF	EKIPA	5	671.2383721	0.955555556	brzi
77	s14	11	t12	12	C	1	561	611	word	2	malo	272	NF	BA[TA	5	671.2383721	0.955555556	brzi
43	s14	11	t13	13	C	1	641	621	word	2	malo	317	NF	RADIO	5	671.2383721	0.955555556	brzi
131	s14	11	t14	14	C	1	571	791	word	2	malo	320	NF	PESAK	5	671.2383721	0.955555556	brzi
115	s14	11	t15	15	C	1	741	901	word	2	malo	374	NF	USPEH	5	671.2383721	0.955555556	brzi
7	s14	11	t16	16	C	1	591	601	word	2	malo	422	VF	USLOV	5	671.2383721	0.955555556	brzi
44	s14	11	t17	17	C	1	691	641	word	2	malo	894	VF	DINAR	5	671.2383721	0.955555556	brzi
174	s14	11	t18	18	C	1	651	560	word	2	malo	1052	VF	ODBOR	5	671.2383721	0.955555556	brzi
14	s14	11	t19	19	C	1	561	291	word	2	malo	1209	VF	SENKA	5	671.2383721	0.955555556	brzi
37	s14	11	t20	20	C	1	501	801	word	2	malo	1452	VF	VLADA	5	671.2383721	0.955555556	brzi
101	s14	11	t21	21	E	0	NA	611	word	3	malo	334	NF	SUTON	5	671.2383721	0.955555556	brzi
136	s14	11	t22	22	C	1	621	741	word	3	malo	335	NF	PU[KA	5	671.2383721	0.955555556	brzi
140	s14	11	t23	23	C	1	851	841	word	3	malo	335	NF	SELJAK	6	671.2383721	0.955555556	brzi
39	s14	11	t24	24	C	1	811	651	word	3	malo	348	NF	SPRAT	5	671.2383721	0.955555556	brzi
83	s14	11	t25	25	C	1	871	591	word	3	malo	414	VF	MINUT	5	671.2383721	0.955555556	brzi
182	s14	11	t26	26	C	1	561	531	word	3	malo	430	VF	VIDIK	5	671.2383721	0.955555556	brzi
55	s14	11	t27	27	C	1	671	891	word	3	malo	631	VF	MAGLA	5	671.2383721	0.955555556	brzi
45	s14	11	t28	28	C	1	601	691	word	3	malo	657	VF	MIRIS	5	671.2383721	0.955555556	brzi
187	s14	11	t29	29	C	1	621	881	word	3	malo	1470	VF	TRAVA	5	671.2383721	0.955555556	brzi
183	s14	11	t30	30	C	1	541	561	word	3	malo	1847	VF	ULICA	5	671.2383721	0.955555556	brzi
87	s14	11	t31	31	E	0	NA	581	word	4	srednje	278	NF	ZANOS	5	671.2383721	0.955555556	brzi
156	s14	11	t32	32	C	1	540	711	word	4	srednje	280	NF	OBZIR	5	671.2383721	0.955555556	brzi
150	s14	11	t33	33	C	1	591	641	word	4	srednje	295	NF	PA@NJA	6	671.2383721	0.955555556	brzi
12	s14	11	t34	34	E	0	NA	621	word	4	srednje	314	NF	SVEST	5	671.2383721	0.955555556	brzi
157	s14	11	t35	35	C	1	550	540	word	4	srednje	328	NF	POTOK	5	671.2383721	0.955555556	brzi
71	s14	11	t36	36	C	1	611	872	word	4	srednje	375	NF	ZVONO	5	671.2383721	0.955555556	brzi
22	s14	11	t37	37	C	1	440	531	word	4	srednje	484	VF	POMO]	5	671.2383721	0.955555556	brzi
11	s14	11	t38	38	C	1	621	871	word	4	srednje	831	VF	GRUDI	5	671.2383721	0.955555556	brzi
144	s14	11	t39	39	C	1	510	661	word	4	srednje	1256	VF	GRANA	5	671.2383721	0.955555556	brzi
121	s14	11	t40	40	C	1	801	691	word	4	srednje	2274	VF	VETAR	5	671.2383721	0.955555556	brzi
146	s14	11	t41	41	C	1	581	832	word	5	srednje	262	NF	KOMAD	5	671.2383721	0.955555556	brzi
179	s14	11	t42	42	C	1	911	822	word	5	srednje	270	NF	LOPTA	5	671.2383721	0.955555556	brzi
159	s14	11	t43	43	C	1	751	791	word	5	srednje	281	NF	IGRA^	5	671.2383721	0.955555556	brzi
96	s14	11	t44	44	C	1	571	611	word	5	srednje	409	VF	PRI^A	5	671.2383721	0.955555556	brzi
28	s14	11	t45	45	C	1	681	852	word	5	srednje	517	VF	SAVEZ	5	671.2383721	0.955555556	brzi
47	s14	11	t46	46	C	1	621	611	word	5	srednje	521	VF	GRUPA	5	671.2383721	0.955555556	brzi
141	s14	11	t47	47	C	1	631	851	word	5	srednje	828	VF	JESEN	5	671.2383721	0.955555556	brzi
10	s14	11	t48	48	C	1	871	691	word	5	srednje	981	VF	KORAK	5	671.2383721	0.955555556	brzi
173	s14	11	t49	49	C	1	560	762	word	5	srednje	1011	VF	SRE]A	5	671.2383721	0.955555556	brzi
161	s14	11	t50	50	C	1	661	551	word	5	srednje	1671	VF	PTICA	5	671.2383721	0.955555556	brzi
32	s14	11	t51	51	C	1	721	571	word	6	srednje	148	NF	ORGAN	5	671.2383721	0.955555556	brzi
91	s14	11	t52	52	C	1	681	541	word	6	srednje	164	NF	FORMA	5	671.2383721	0.955555556	brzi
30	s14	11	t53	53	C	1	571	591	word	6	srednje	179	NF	BLATO	5	671.2383721	0.955555556	brzi
97	s14	11	t54	54	C	1	621	571	word	6	srednje	184	NF	KLUPA	5	671.2383721	0.955555556	brzi
138	s14	11	t55	55	C	1	681	741	word	6	srednje	216	NF	PONOR	5	671.2383721	0.955555556	brzi
104	s14	11	t56	56	C	1	691	851	word	6	srednje	255	NF	PODNE	5	671.2383721	0.955555556	brzi
35	s14	11	t57	57	C	1	630	280	word	6	srednje	318	NF	STENA	5	671.2383721	0.955555556	brzi
137	s14	11	t58	58	C	1	741	621	word	6	srednje	463	VF	IZVOR	5	671.2383721	0.955555556	brzi
151	s14	11	t59	59	C	1	541	591	word	6	srednje	2365	VF	LJUBAV	6	671.2383721	0.955555556	brzi
57	s14	11	t60	60	C	1	631	560	word	6	srednje	2626	VF	PESMA	5	671.2383721	0.955555556	brzi
90	s14	11	t61	61	C	1	541	851	word	7	mnogo	118	NF	MOMAK	5	671.2383721	0.955555556	brzi
171	s14	11	t62	62	C	1	791	681	word	7	mnogo	129	NF	BLAGO	5	671.2383721	0.955555556	brzi
65	s14	11	t63	63	C	1	721	641	word	7	mnogo	134	NF	OSNOV	5	671.2383721	0.955555556	brzi
153	s14	11	t64	64	E	0	NA	551	word	7	mnogo	193	NF	STADO	5	671.2383721	0.955555556	brzi
176	s14	11	t65	65	C	1	641	881	word	7	mnogo	326	NF	SLAVA	5	671.2383721	0.955555556	brzi
78	s14	11	t66	66	C	1	591	561	word	7	mnogo	649	VF	KNJIGA	6	671.2383721	0.955555556	brzi
167	s14	11	t67	67	C	1	681	611	word	7	mnogo	885	VF	[KOLA	5	671.2383721	0.955555556	brzi
162	s14	11	t68	68	C	1	571	661	word	7	mnogo	1023	VF	BORBA	5	671.2383721	0.955555556	brzi
125	s14	11	t69	69	C	1	590	721	word	7	mnogo	1565	VF	OBLAK	5	671.2383721	0.955555556	brzi
66	s14	11	t70	70	C	1	611	721	word	7	mnogo	2984	VF	SUNCE	5	671.2383721	0.955555556	brzi
73	s14	11	t71	71	C	1	701	771	word	8	mnogo	111	NF	REBRO	5	671.2383721	0.955555556	brzi
177	s14	11	t72	72	C	1	651	641	word	8	mnogo	116	NF	KONAC	5	671.2383721	0.955555556	brzi
149	s14	11	t73	73	C	1	641	571	word	8	mnogo	135	NF	POTEZ	5	671.2383721	0.955555556	brzi
63	s14	11	t74	74	C	1	862	661	word	8	mnogo	159	NF	JUNAK	5	671.2383721	0.955555556	brzi
80	s14	11	t75	75	C	1	491	571	word	8	mnogo	212	NF	LANAC	5	671.2383721	0.955555556	brzi
16	s14	11	t76	76	C	1	501	621	word	8	mnogo	380	NF	ZLATO	5	671.2383721	0.955555556	brzi
134	s14	11	t77	77	C	1	1012	621	word	8	mnogo	416	VF	PISMO	5	671.2383721	0.955555556	brzi
186	s14	11	t78	78	C	1	881	611	word	8	mnogo	431	VF	ZAKON	5	671.2383721	0.955555556	brzi
89	s14	11	t79	79	C	1	851	360	word	8	mnogo	1460	VF	SNAGA	5	671.2383721	0.955555556	brzi
84	s14	11	t80	80	C	1	631	871	word	8	mnogo	3952	VF	ZEMLJA	6	671.2383721	0.955555556	brzi
132	s14	11	t81	81	C	1	641	571	word	9	mnogo	161	NF	KLASA	5	671.2383721	0.955555556	brzi
99	s14	11	t82	82	C	1	601	661	word	9	mnogo	168	NF	PLO^A	5	671.2383721	0.955555556	brzi
5	s14	11	t83	83	C	1	601	391	word	9	mnogo	307	NF	KARTA	5	671.2383721	0.955555556	brzi
94	s14	11	t84	84	C	1	911	671	word	9	mnogo	328	NF	MRE@A	5	671.2383721	0.955555556	brzi
76	s14	11	t85	85	C	1	611	872	word	9	mnogo	399	NF	STANJE	6	671.2383721	0.955555556	brzi
19	s14	11	t86	86	C	1	481	591	word	9	mnogo	403	VF	GOVOR	5	671.2383721	0.955555556	brzi
49	s14	11	t87	87	C	1	591	741	word	9	mnogo	999	VF	POSAO	5	671.2383721	0.955555556	brzi
6	s14	11	t88	88	C	1	601	601	word	9	mnogo	1180	VF	MESTO	5	671.2383721	0.955555556	brzi
53	s14	11	t89	89	C	1	821	571	word	9	mnogo	1620	VF	NAROD	5	671.2383721	0.955555556	brzi
20	s14	11	t90	90	C	1	621	481	word	9	mnogo	190	NF	TA^KA	5	671.2383721	0.955555556	brzi
17	s14	11	t91	91	C	1	641	501	pseudoword	NA	NA	NA	NA	[AMAT	5	671.2383721	0.955555556	brzi
164	s14	11	t92	92	C	1	741	711	pseudoword	NA	NA	NA	NA	MR@KA	5	671.2383721	0.955555556	brzi
25	s14	11	t93	93	C	1	641	751	pseudoword	NA	NA	NA	NA	CESKA	5	671.2383721	0.955555556	brzi
36	s14	11	t94	94	C	1	801	630	pseudoword	NA	NA	NA	NA	ME@NJA	6	671.2383721	0.955555556	brzi
175	s14	11	t95	95	C	1	881	651	pseudoword	NA	NA	NA	NA	GRASE	5	671.2383721	0.955555556	brzi
52	s14	11	t96	96	C	1	571	611	pseudoword	NA	NA	NA	NA	GE^AK	5	671.2383721	0.955555556	brzi
147	s14	11	t97	97	C	1	631	581	pseudoword	NA	NA	NA	NA	APNIL	5	671.2383721	0.955555556	brzi
21	s14	11	t98	98	C	1	531	621	pseudoword	NA	NA	NA	NA	OFMEH	5	671.2383721	0.955555556	brzi
27	s14	11	t99	99	C	1	852	731	pseudoword	NA	NA	NA	NA	GRE]E	5	671.2383721	0.955555556	brzi
98	s14	11	t100	100	C	1	661	621	pseudoword	NA	NA	NA	NA	FI[]E	5	671.2383721	0.955555556	brzi
181	s14	11	t101	101	C	1	531	571	pseudoword	NA	NA	NA	NA	ELIPA	5	671.2383721	0.955555556	brzi
145	s14	11	t102	102	C	1	832	510	pseudoword	NA	NA	NA	NA	BANTA	5	671.2383721	0.955555556	brzi
160	s14	11	t103	103	C	1	551	751	pseudoword	NA	NA	NA	NA	RAFIO	5	671.2383721	0.955555556	brzi
74	s14	11	t104	104	C	1	821	701	pseudoword	NA	NA	NA	NA	NESAK	5	671.2383721	0.955555556	brzi
188	s14	11	t105	105	C	1	580	621	pseudoword	NA	NA	NA	NA	ULPEH	5	671.2383721	0.955555556	brzi
46	s14	11	t106	106	C	1	611	601	pseudoword	NA	NA	NA	NA	UKLOV	5	671.2383721	0.955555556	brzi
129	s14	11	t107	107	C	1	671	591	pseudoword	NA	NA	NA	NA	DINAT	5	671.2383721	0.955555556	brzi
135	s14	11	t108	108	C	1	741	1012	pseudoword	NA	NA	NA	NA	ODGOR	5	671.2383721	0.955555556	brzi
184	s14	11	t109	109	C	1	581	541	pseudoword	NA	NA	NA	NA	SEFKA	5	671.2383721	0.955555556	brzi
69	s14	11	t110	110	C	1	631	661	pseudoword	NA	NA	NA	NA	VLABA	5	671.2383721	0.955555556	brzi
108	s14	11	t111	111	C	1	711	701	pseudoword	NA	NA	NA	NA	GUTON	5	671.2383721	0.955555556	brzi
122	s14	11	t112	112	C	1	781	801	pseudoword	NA	NA	NA	NA	PUNJKA	6	671.2383721	0.955555556	brzi
59	s14	11	t113	113	C	1	721	581	pseudoword	NA	NA	NA	NA	KELJAK	6	671.2383721	0.955555556	brzi
107	s14	11	t114	114	C	1	701	651	pseudoword	NA	NA	NA	NA	MRAT	4	671.2383721	0.955555556	brzi
56	s14	11	t115	115	C	1	560	671	pseudoword	NA	NA	NA	NA	RINUT	5	671.2383721	0.955555556	brzi
42	s14	11	t116	116	C	1	621	290	pseudoword	NA	NA	NA	NA	VIMIK	5	671.2383721	0.955555556	brzi
142	s14	11	t117	117	C	1	541	631	pseudoword	NA	NA	NA	NA	FAGLA	5	671.2383721	0.955555556	brzi
82	s14	11	t118	118	C	1	591	571	pseudoword	NA	NA	NA	NA	MINJIS	6	671.2383721	0.955555556	brzi
126	s14	11	t119	119	C	1	721	590	pseudoword	NA	NA	NA	NA	TRANA	5	671.2383721	0.955555556	brzi
75	s14	11	t120	120	C	1	872	821	pseudoword	NA	NA	NA	NA	UKICA	5	671.2383721	0.955555556	brzi
185	s14	11	t121	121	C	1	611	581	pseudoword	NA	NA	NA	NA	ZAROS	5	671.2383721	0.955555556	brzi
158	s14	11	t122	122	C	1	791	550	pseudoword	NA	NA	NA	NA	OGZIR	5	671.2383721	0.955555556	brzi
130	s14	11	t123	123	C	1	791	671	pseudoword	NA	NA	NA	NA	DA@NJA	6	671.2383721	0.955555556	brzi
64	s14	11	t124	124	C	1	641	862	pseudoword	NA	NA	NA	NA	SVUST	5	671.2383721	0.955555556	brzi
120	s14	11	t125	125	C	1	691	561	pseudoword	NA	NA	NA	NA	MOTOK	5	671.2383721	0.955555556	brzi
29	s14	11	t126	126	C	1	591	681	pseudoword	NA	NA	NA	NA	ZRONO	5	671.2383721	0.955555556	brzi
93	s14	11	t127	127	C	1	671	591	pseudoword	NA	NA	NA	NA	POGO]	5	671.2383721	0.955555556	brzi
62	s14	11	t128	128	C	1	661	581	pseudoword	NA	NA	NA	NA	VRUDI	5	671.2383721	0.955555556	brzi
61	s14	11	t129	129	C	1	581	791	pseudoword	NA	NA	NA	NA	FRANA	5	671.2383721	0.955555556	brzi
67	s14	11	t130	130	C	1	601	611	pseudoword	NA	NA	NA	NA	GETAR	5	671.2383721	0.955555556	brzi
58	s14	11	t131	131	C	1	581	631	pseudoword	NA	NA	NA	NA	JOMAD	5	671.2383721	0.955555556	brzi
117	s14	11	t132	132	C	1	781	631	pseudoword	NA	NA	NA	NA	LONTA	5	671.2383721	0.955555556	brzi
116	s14	11	t133	133	C	1	631	741	pseudoword	NA	NA	NA	NA	IMRA^	5	671.2383721	0.955555556	brzi
165	s14	11	t134	134	C	1	711	741	pseudoword	NA	NA	NA	NA	DRI^A	5	671.2383721	0.955555556	brzi
118	s14	11	t135	135	C	1	631	781	pseudoword	NA	NA	NA	NA	SADEZ	5	671.2383721	0.955555556	brzi
109	s14	11	t136	136	C	1	341	711	pseudoword	NA	NA	NA	NA	SRUPA	5	671.2383721	0.955555556	brzi
50	s14	11	t137	137	C	1	571	591	pseudoword	NA	NA	NA	NA	GESEN	5	671.2383721	0.955555556	brzi
9	s14	11	t138	138	C	1	691	591	pseudoword	NA	NA	NA	NA	LORAK	5	671.2383721	0.955555556	brzi
100	s14	11	t139	139	C	1	611	601	pseudoword	NA	NA	NA	NA	HRE]A	5	671.2383721	0.955555556	brzi
114	s14	11	t140	140	C	1	901	781	pseudoword	NA	NA	NA	NA	PLJICA	6	671.2383721	0.955555556	brzi
163	s14	11	t141	141	C	1	711	571	pseudoword	NA	NA	NA	NA	ORSAN	5	671.2383721	0.955555556	brzi
85	s14	11	t142	142	C	1	1072	631	pseudoword	NA	NA	NA	NA	GORMA	5	671.2383721	0.955555556	brzi
38	s14	11	t143	143	C	1	651	501	pseudoword	NA	NA	NA	NA	FLATO	5	671.2383721	0.955555556	brzi
92	s14	11	t144	144	C	1	591	681	pseudoword	NA	NA	NA	NA	KLURA	5	671.2383721	0.955555556	brzi
172	s14	11	t145	145	C	1	762	791	pseudoword	NA	NA	NA	NA	MONOR	5	671.2383721	0.955555556	brzi
81	s14	11	t146	146	C	1	571	491	pseudoword	NA	NA	NA	NA	LONDE	5	671.2383721	0.955555556	brzi
127	s14	11	t147	147	C	1	561	721	pseudoword	NA	NA	NA	NA	STEDA	5	671.2383721	0.955555556	brzi
143	s14	11	t148	148	C	1	661	541	pseudoword	NA	NA	NA	NA	IZVOK	5	671.2383721	0.955555556	brzi
106	s14	11	t149	149	C	1	651	611	pseudoword	NA	NA	NA	NA	LJUBANJ	7	671.2383721	0.955555556	brzi
124	s14	11	t150	150	C	1	721	931	pseudoword	NA	NA	NA	NA	PE^MA	5	671.2383721	0.955555556	brzi
169	s14	11	t151	151	C	1	691	1172	pseudoword	NA	NA	NA	NA	RORAK	5	671.2383721	0.955555556	brzi
123	s14	11	t152	152	C	1	931	781	pseudoword	NA	NA	NA	NA	FLAGO	5	671.2383721	0.955555556	brzi
1	s14	11	t153	153	C	1	591	prvi_trial	pseudoword	NA	NA	NA	NA	ORNOV	5	671.2383721	0.955555556	brzi
178	s14	11	t154	154	C	1	822	651	pseudoword	NA	NA	NA	NA	STAKO	5	671.2383721	0.955555556	brzi
48	s14	11	t155	155	C	1	741	621	pseudoword	NA	NA	NA	NA	SLAKA	5	671.2383721	0.955555556	brzi
79	s14	11	t156	156	C	1	571	591	pseudoword	NA	NA	NA	NA	KRIGA	5	671.2383721	0.955555556	brzi
72	s14	11	t157	157	C	1	771	611	pseudoword	NA	NA	NA	NA	[KONJA	6	671.2383721	0.955555556	brzi
95	s14	11	t158	158	C	1	611	911	pseudoword	NA	NA	NA	NA	BORLA	5	671.2383721	0.955555556	brzi
15	s14	11	t159	159	C	1	621	561	pseudoword	NA	NA	NA	NA	OBLAD	5	671.2383721	0.955555556	brzi
170	s14	11	t160	160	C	1	681	691	pseudoword	NA	NA	NA	NA	GUNCE	5	671.2383721	0.955555556	brzi
26	s14	11	t161	161	C	1	731	641	pseudoword	NA	NA	NA	NA	GEBRO	5	671.2383721	0.955555556	brzi
166	s14	11	t162	162	C	1	611	711	pseudoword	NA	NA	NA	NA	JONAC	5	671.2383721	0.955555556	brzi
8	s14	11	t163	163	C	1	591	591	pseudoword	NA	NA	NA	NA	MOTEZ	5	671.2383721	0.955555556	brzi
86	s14	11	t164	164	C	1	581	1072	pseudoword	NA	NA	NA	NA	JUPAK	5	671.2383721	0.955555556	brzi
2	s14	11	t165	165	C	1	781	591	pseudoword	NA	NA	NA	NA	KANAC	5	671.2383721	0.955555556	brzi
119	s14	11	t166	166	C	1	561	631	pseudoword	NA	NA	NA	NA	ZLARO	5	671.2383721	0.955555556	brzi
180	s14	11	t167	167	C	1	571	911	pseudoword	NA	NA	NA	NA	KISMO	5	671.2383721	0.955555556	brzi
148	s14	11	t168	168	C	1	571	631	pseudoword	NA	NA	NA	NA	VAKON	5	671.2383721	0.955555556	brzi
60	s14	11	t169	169	C	1	791	721	pseudoword	NA	NA	NA	NA	SNARA	5	671.2383721	0.955555556	brzi
23	s14	11	t170	170	C	1	711	440	pseudoword	NA	NA	NA	NA	KEMLJA	6	671.2383721	0.955555556	brzi
24	s14	11	t171	171	C	1	751	711	pseudoword	NA	NA	NA	NA	KLAFA	5	671.2383721	0.955555556	brzi
31	s14	11	t172	172	C	1	571	571	pseudoword	NA	NA	NA	NA	PLOFA	5	671.2383721	0.955555556	brzi
110	s14	11	t173	173	E	0	NA	341	pseudoword	NA	NA	NA	NA	KAMTA	5	671.2383721	0.955555556	brzi
3	s14	11	t174	174	E	0	NA	781	pseudoword	NA	NA	NA	NA	MREDA	5	671.2383721	0.955555556	brzi
112	s14	11	t175	175	C	1	781	270	pseudoword	NA	NA	NA	NA	STAME	5	671.2383721	0.955555556	brzi
168	s14	11	t176	176	C	1	1172	681	pseudoword	NA	NA	NA	NA	MOVOR	5	671.2383721	0.955555556	brzi
68	s14	11	t177	177	C	1	661	601	pseudoword	NA	NA	NA	NA	MOSAO	5	671.2383721	0.955555556	brzi
128	s14	11	t178	178	C	1	591	561	pseudoword	NA	NA	NA	NA	LESTO	5	671.2383721	0.955555556	brzi
155	s14	11	t179	179	C	1	711	360	pseudoword	NA	NA	NA	NA	GAROD	5	671.2383721	0.955555556	brzi
139	s14	11	t180	180	C	1	841	681	pseudoword	NA	NA	NA	NA	LA^KA	5	671.2383721	0.955555556	brzi
23	s15	10	t1	1	C	1	781	761	word	1	malo	302	NF	[APAT	5	779.9597701	0.966666667	spori
41	s15	10	t2	2	C	1	721	691	word	1	malo	320	NF	MR@NJA	6	779.9597701	0.966666667	spori
64	s15	10	t3	3	C	1	901	1021	word	1	malo	391	NF	CESTA	5	779.9597701	0.966666667	spori
68	s15	10	t4	4	C	1	791	1202	word	1	malo	414	VF	^E@NJA	6	779.9597701	0.966666667	spori
5	s15	10	t5	5	C	1	931	821	word	1	malo	424	VF	GRANJE	6	779.9597701	0.966666667	spori
74	s15	10	t6	6	C	1	701	691	word	1	malo	448	VF	DE^AK	5	779.9597701	0.966666667	spori
150	s15	10	t7	7	C	1	641	871	word	1	malo	453	VF	APRIL	5	779.9597701	0.966666667	spori
40	s15	10	t8	8	C	1	691	681	word	1	malo	720	VF	OSMEH	5	779.9597701	0.966666667	spori
126	s15	10	t9	9	C	1	1131	842	word	1	malo	786	VF	CVE]E	5	779.9597701	0.966666667	spori
20	s15	10	t10	10	C	1	731	701	word	1	malo	1085	VF	LI[]E	5	779.9597701	0.966666667	spori
183	s15	10	t11	11	C	1	651	781	word	2	malo	254	NF	EKIPA	5	779.9597701	0.966666667	spori
166	s15	10	t12	12	C	1	831	651	word	2	malo	272	NF	BA[TA	5	779.9597701	0.966666667	spori
180	s15	10	t13	13	C	1	681	280	word	2	malo	317	NF	RADIO	5	779.9597701	0.966666667	spori
96	s15	10	t14	14	C	1	791	731	word	2	malo	320	NF	PESAK	5	779.9597701	0.966666667	spori
82	s15	10	t15	15	C	1	681	1402	word	2	malo	374	NF	USPEH	5	779.9597701	0.966666667	spori
164	s15	10	t16	16	C	1	761	661	word	2	malo	422	VF	USLOV	5	779.9597701	0.966666667	spori
104	s15	10	t17	17	C	1	591	731	word	2	malo	894	VF	DINAR	5	779.9597701	0.966666667	spori
28	s15	10	t18	18	C	1	741	741	word	2	malo	1052	VF	ODBOR	5	779.9597701	0.966666667	spori
178	s15	10	t19	19	E	0	NA	591	word	2	malo	1209	VF	SENKA	5	779.9597701	0.966666667	spori
88	s15	10	t20	20	C	1	671	601	word	2	malo	1452	VF	VLADA	5	779.9597701	0.966666667	spori
99	s15	10	t21	21	C	1	931	701	word	3	malo	334	NF	SUTON	5	779.9597701	0.966666667	spori
